rt	stimulus	response	trial_type	trial_index	time_elapsed	internal_node_id	slider_start	accuracy	participant_id	ctime
16270	<h3>Instructions</h3>  <p style='text-align:left'>In this experiment, you will read conversations between two people, as in this example, where Candy asks a question, and Lenny responds:</p>  <p style='text-align:left'> <b>Candy</b>: <i>What about the house? Is it big? </i> <br> <b>Lenny</b>: <i> Cassandra suggested that it's huge. </i> </p>  <p style='text-align:left'>We ask you to rate how natural Lenny's answer to Candy's question is. You will give your response on a slider from 'totally unnatural' to 'totally natural'.</p>  <p style='text-align:left'>At the end of the experiment, we will ask you some optional demographic questions (age, gender, native language). The experiment will take about two minutes.</p>  <p style='text-align:left' font size=""1"">By clicking on the button below you agree to participate in this experiment, which is conducted by researchers at the University of Stuttgart. You may withdraw from this experiment at any time without penalty. The data collected will be anonymous and confidential. If you have any questions, you may contact the requester through Prolific's platform, or directly at st180735@stud.uni-stuttgart.de.</p>	0	html-button-response	0	16287	0.0-0.0	NA	NA	de2c7ee4-6ab6-4de2-ac91-cceaaa6ec9b5	2023-11-08 13:10:23 CET
13868	<b>Charlie:</b><em> What about Patricia? Why is she proud?</em><br> <b>Clare:</b><em> She said that Jackson ran 10 miles.</em> <br> <br> <br> How natural is Clare's answer to Charlie's question?	81	html-slider-response	1	30164	0.0-1.0-0.0	50	NA	de2c7ee4-6ab6-4de2-ac91-cceaaa6ec9b5	2023-11-08 13:10:23 CET
8714	<b>Leo:</b><em> What about Patrick? Why is he angry?</em><br> <b>Nina:</b><em> He discovered that Sophia got a tattoo.</em> <br> <br> <br> How natural is Nina's answer to Leo's question?	82	html-slider-response	2	38881	0.0-1.0-0.1	50	NA	de2c7ee4-6ab6-4de2-ac91-cceaaa6ec9b5	2023-11-08 13:10:23 CET
9029	<b>Oliver:</b><em> What about Emma? What did she do?</em><br> <b>Noah:</b><em> James confessed that she studied on Saturday morning.</em> <br> <br> <br> How natural is Noah's answer to Oliver's question?	10	html-slider-response	3	47915	0.0-1.0-0.2	50	NA	de2c7ee4-6ab6-4de2-ac91-cceaaa6ec9b5	2023-11-08 13:10:23 CET
7210	<b>William:</b><em> What about David? Why is he smirking?</em><br> <b>Grace:</b><em> He knows that Mia drank two cocktails last night.</em> <br> <br> <br> How natural is Grace's answer to William's question?	75	html-slider-response	4	55130	0.0-1.0-0.3	50	NA	de2c7ee4-6ab6-4de2-ac91-cceaaa6ec9b5	2023-11-08 13:10:23 CET
7695	<b>Jennifer:</b><em> What about Ann? Where did she go?</em><br> <b>Robert:</b><em> Ann, who loves travelling, went to London.</em> <br> <br> <br>How natural is Robert's answer to Jennifer's question?	69	html-slider-response	5	62831	0.0-1.0-0.4	50	NA	de2c7ee4-6ab6-4de2-ac91-cceaaa6ec9b5	2023-11-08 13:10:23 CET
8162	<b>Nora:</b><em> What about Tony? What did he do?</em><br> <b>Steven:</b><em> Jessica is right that he had a drink last night.</em> <br> <br> <br> How natural is Steven's answer to Nora's question?	23	html-slider-response	6	70998	0.0-1.0-0.5	50	NA	de2c7ee4-6ab6-4de2-ac91-cceaaa6ec9b5	2023-11-08 13:10:23 CET
6327	<b>Frank:</b><em> What about Danny? What did he do?</em><br> <b>Daniel:</b><em> Linda thinks that he ate the last cupcake.</em> <br> <br> <br> How natural is Daniel's answer to Frank's question?	80	html-slider-response	7	77331	0.0-1.0-0.6	50	NA	de2c7ee4-6ab6-4de2-ac91-cceaaa6ec9b5	2023-11-08 13:10:23 CET
5563	<b>Mary:</b><em> Do these muffins have blueberries in them?</em><br> <b>John:</b><em> Linda claimed that she likes drinking coffee.</em> <br> <br> <br>How natural is John's answer to Mary's question?	0	html-slider-response	8	82899	0.0-1.0-0.7	50	NA	de2c7ee4-6ab6-4de2-ac91-cceaaa6ec9b5	2023-11-08 13:10:23 CET
7256	<b>Michael:</b><em> What about Samantha? What did she buy? </em><br> <b>Elizabeth:</b><em> Samantha, who is really into fashion, bought a new hat.</em> <br> <br> <br>How natural is Elizabeth's answer to Michael's question?	80	html-slider-response	9	90159	0.0-1.0-0.8	50	NA	de2c7ee4-6ab6-4de2-ac91-cceaaa6ec9b5	2023-11-08 13:10:23 CET
5832	<b>Richard:</b><em> What about John's kids? Are they in the garage?</em><br> <b>Susan:</b><em> Linda claimed that John's kids are good at math. </em> <br> <br> <br>How natural is Susan's answer to Richard's question?	0	html-slider-response	10	95995	0.0-1.0-0.9	50	NA	de2c7ee4-6ab6-4de2-ac91-cceaaa6ec9b5	2023-11-08 13:10:23 CET
17857	NA	{""P0_Q0"":null,""age"":""43"",""gender"":""male"",""language"":""yes"",""amE"":""yes"",""comments"":""""}	survey	11	114007	0.0-2.0	NA	[]	de2c7ee4-6ab6-4de2-ac91-cceaaa6ec9b5	2023-11-08 13:10:23 CET
6951	<h3>Instructions</h3>  <p style='text-align:left'>In this experiment, you will read conversations between two people, as in this example, where Candy asks a question, and Lenny responds:</p>  <p style='text-align:left'> <b>Candy</b>: <i>What about the house? Is it big? </i> <br> <b>Lenny</b>: <i> Cassandra suggested that it's huge. </i> </p>  <p style='text-align:left'>We ask you to rate how natural Lenny's answer to Candy's question is. You will give your response on a slider from 'totally unnatural' to 'totally natural'.</p>  <p style='text-align:left'>At the end of the experiment, we will ask you some optional demographic questions (age, gender, native language). The experiment will take about two minutes.</p>  <p style='text-align:left' font size=""1"">By clicking on the button below you agree to participate in this experiment, which is conducted by researchers at the University of Stuttgart. You may withdraw from this experiment at any time without penalty. The data collected will be anonymous and confidential. If you have any questions, you may contact the requester through Prolific's platform, or directly at st180735@stud.uni-stuttgart.de.</p>	0	html-button-response	0	6972	0.0-0.0	NA	NA	98f314d9-91c2-4b9c-ba5b-8b7de0d5607e	2023-11-08 13:12:40 CET
20927	<b>Richard:</b><em> What about John's kids? Are they in the garage?</em><br> <b>Susan:</b><em> Linda claimed that John's kids are good at math. </em> <br> <br> <br>How natural is Susan's answer to Richard's question?	10	html-slider-response	1	27903	0.0-1.0-0.0	50	NA	98f314d9-91c2-4b9c-ba5b-8b7de0d5607e	2023-11-08 13:12:40 CET
12268	<b>Jennifer:</b><em> What about Ann? Where did she go?</em><br> <b>Robert:</b><em> Ann, who loves travelling, went to London.</em> <br> <br> <br>How natural is Robert's answer to Jennifer's question?	95	html-slider-response	2	40174	0.0-1.0-0.1	50	NA	98f314d9-91c2-4b9c-ba5b-8b7de0d5607e	2023-11-08 13:12:40 CET
12093	<b>Bob:</b><em> What about Mia? What did she do?</em><br> <b>Frank:</b><em> David thinks that she drank two cocktails last night.</em> <br> <br> <br> How natural is Frank's answer to Bob's question?	99	html-slider-response	3	52269	0.0-1.0-0.2	50	NA	98f314d9-91c2-4b9c-ba5b-8b7de0d5607e	2023-11-08 13:12:40 CET
16109	<b>Michael:</b><em> What about Samantha? What did she buy? </em><br> <b>Elizabeth:</b><em> Samantha, who is really into fashion, bought a new hat.</em> <br> <br> <br>How natural is Elizabeth's answer to Michael's question?	96	html-slider-response	4	68383	0.0-1.0-0.3	50	NA	98f314d9-91c2-4b9c-ba5b-8b7de0d5607e	2023-11-08 13:12:40 CET
11798	<b>Leo:</b><em> What about Patricia? Why is she proud?</em><br> <b>Charlie:</b><em> She is right that Jackson ran 10 miles.</em> <br> <br> <br> How natural is Charlie's answer to Leo's question?	3	html-slider-response	5	80183	0.0-1.0-0.4	50	NA	98f314d9-91c2-4b9c-ba5b-8b7de0d5607e	2023-11-08 13:12:40 CET
11738	<b>Ken:</b><em> What about Jessica? Why is she upset?</em><br> <b>Noah:</b><em> She said that Tony had a drink last night.</em> <br> <br> <br> How natural is Noah's answer to Ken's question?	96	html-slider-response	6	91926	0.0-1.0-0.5	50	NA	98f314d9-91c2-4b9c-ba5b-8b7de0d5607e	2023-11-08 13:12:40 CET
13372	<b>Dawn:</b><em> What about Sophia? What did she do?</em><br> <b>Steven:</b><em> Patrick knows that she got a tattoo.</em> <br> <br> <br> How natural is Steven's answer to Dawn's question?	83	html-slider-response	7	105300	0.0-1.0-0.6	50	NA	98f314d9-91c2-4b9c-ba5b-8b7de0d5607e	2023-11-08 13:12:40 CET
10099	<b>Mary:</b><em> Do these muffins have blueberries in them?</em><br> <b>John:</b><em> Linda claimed that she likes drinking coffee.</em> <br> <br> <br>How natural is John's answer to Mary's question?	0	html-slider-response	8	115401	0.0-1.0-0.7	50	NA	98f314d9-91c2-4b9c-ba5b-8b7de0d5607e	2023-11-08 13:12:40 CET
9209	<b>Charlotte:</b><em> What about Linda? Why is she pouting?</em><br> <b>Chloe:</b><em> She discovered that Danny ate the last cupcake.</em> <br> <br> <br> How natural is Chloe's answer to Charlotte's question?	100	html-slider-response	9	124613	0.0-1.0-0.8	50	NA	98f314d9-91c2-4b9c-ba5b-8b7de0d5607e	2023-11-08 13:12:40 CET
9253	<b>Grace:</b><em> What about Emma? What did she do?</em><br> <b>Oliver:</b><em> James confessed that she studied on Saturday morning.</em> <br> <br> <br> How natural is Oliver's answer to Grace's question?	65	html-slider-response	10	133869	0.0-1.0-0.9	50	NA	98f314d9-91c2-4b9c-ba5b-8b7de0d5607e	2023-11-08 13:12:40 CET
12737	NA	{""P0_Q0"":null,""age"":""31"",""gender"":""female"",""language"":""yes"",""amE"":""yes"",""comments"":""""}	survey	11	146747	0.0-2.0	NA	[]	98f314d9-91c2-4b9c-ba5b-8b7de0d5607e	2023-11-08 13:12:40 CET
7560	<h3>Instructions</h3>  <p style='text-align:left'>In this experiment, you will read conversations between two people, as in this example, where Candy asks a question, and Lenny responds:</p>  <p style='text-align:left'> <b>Candy</b>: <i>What about the house? Is it big? </i> <br> <b>Lenny</b>: <i> Cassandra suggested that it's huge. </i> </p>  <p style='text-align:left'>We ask you to rate how natural Lenny's answer to Candy's question is. You will give your response on a slider from 'totally unnatural' to 'totally natural'.</p>  <p style='text-align:left'>At the end of the experiment, we will ask you some optional demographic questions (age, gender, native language). The experiment will take about two minutes.</p>  <p style='text-align:left' font size=""1"">By clicking on the button below you agree to participate in this experiment, which is conducted by researchers at the University of Stuttgart. You may withdraw from this experiment at any time without penalty. The data collected will be anonymous and confidential. If you have any questions, you may contact the requester through Prolific's platform, or directly at st180735@stud.uni-stuttgart.de.</p>	0	html-button-response	0	7571	0.0-0.0	NA	NA	954ac377-150a-4890-838d-55a401976824	2023-11-08 13:18:56 CET
17323	<b>Michael:</b><em> What about Samantha? What did she buy? </em><br> <b>Elizabeth:</b><em> Samantha, who is really into fashion, bought a new hat.</em> <br> <br> <br>How natural is Elizabeth's answer to Michael's question?	36	html-slider-response	1	24902	0.0-1.0-0.0	50	NA	954ac377-150a-4890-838d-55a401976824	2023-11-08 13:18:56 CET
7679	<b>Jennifer:</b><em> What about Ann? Where did she go?</em><br> <b>Robert:</b><em> Ann, who loves travelling, went to London.</em> <br> <br> <br>How natural is Robert's answer to Jennifer's question?	44	html-slider-response	2	32586	0.0-1.0-0.1	50	NA	954ac377-150a-4890-838d-55a401976824	2023-11-08 13:18:56 CET
11658	<b>Richard:</b><em> What about John's kids? Are they in the garage?</em><br> <b>Susan:</b><em> Linda claimed that John's kids are good at math. </em> <br> <br> <br>How natural is Susan's answer to Richard's question?	2	html-slider-response	3	44247	0.0-1.0-0.2	50	NA	954ac377-150a-4890-838d-55a401976824	2023-11-08 13:18:56 CET
9396	<b>Oliver:</b><em> What about Sophia? What did she do?</em><br> <b>Isabel:</b><em> Patrick said that she got a tattoo.</em> <br> <br> <br> How natural is Isabel's answer to Oliver's question?	100	html-slider-response	4	53645	0.0-1.0-0.3	50	NA	954ac377-150a-4890-838d-55a401976824	2023-11-08 13:18:56 CET
9103	<b>Dawn:</b><em> What about Danny? What did he do?</em><br> <b>Grace:</b><em> Linda confessed that he ate the last cupcake.</em> <br> <br> <br> How natural is Grace's answer to Dawn's question?	100	html-slider-response	5	62752	0.0-1.0-0.4	50	NA	954ac377-150a-4890-838d-55a401976824	2023-11-08 13:18:56 CET
7437	<b>Nina:</b><em> What about James? Why is he annoyed?</em><br> <b>Leo:</b><em> He thinks that Emma studied on Saturday morning.</em> <br> <br> <br> How natural is Leo's answer to Nina's question?	28	html-slider-response	6	70193	0.0-1.0-0.5	50	NA	954ac377-150a-4890-838d-55a401976824	2023-11-08 13:18:56 CET
10175	<b>Noah:</b><em> What about Jessica? Why is she upset?</em><br> <b>Charlotte:</b><em> She knows that Tony had a drink last night.</em> <br> <br> <br> How natural is Charlotte's answer to Noah's question?	95	html-slider-response	7	80371	0.0-1.0-0.6	50	NA	954ac377-150a-4890-838d-55a401976824	2023-11-08 13:18:56 CET
10435	<b>William:</b><em> What about Mia? What did she do?</em><br> <b>Charlie:</b><em> David is right that she drank two cocktails last night.</em> <br> <br> <br> How natural is Charlie's answer to William's question?	40	html-slider-response	8	90809	0.0-1.0-0.7	50	NA	954ac377-150a-4890-838d-55a401976824	2023-11-08 13:18:56 CET
5740	<b>Mary:</b><em> Do these muffins have blueberries in them?</em><br> <b>John:</b><em> Linda claimed that she likes drinking coffee.</em> <br> <br> <br>How natural is John's answer to Mary's question?	4	html-slider-response	9	96553	0.0-1.0-0.8	50	NA	954ac377-150a-4890-838d-55a401976824	2023-11-08 13:18:56 CET
6107	<b>Nora:</b><em> What about Patricia? Why is she proud?</em><br> <b>Alice:</b><em> She discovered that Jackson ran 10 miles.</em> <br> <br> <br> How natural is Alice's answer to Nora's question?	86	html-slider-response	10	102664	0.0-1.0-0.9	50	NA	954ac377-150a-4890-838d-55a401976824	2023-11-08 13:18:56 CET
11783	NA	{""P0_Q0"":null,""age"":""38"",""gender"":""female"",""language"":""yes"",""amE"":""yes"",""comments"":""""}	survey	11	114591	0.0-2.0	NA	[]	954ac377-150a-4890-838d-55a401976824	2023-11-08 13:18:56 CET
18984	<h3>Instructions</h3>  <p style='text-align:left'>In this experiment, you will read conversations between two people, as in this example, where Candy asks a question, and Lenny responds:</p>  <p style='text-align:left'> <b>Candy</b>: <i>What about the house? Is it big? </i> <br> <b>Lenny</b>: <i> Cassandra suggested that it's huge. </i> </p>  <p style='text-align:left'>We ask you to rate how natural Lenny's answer to Candy's question is. You will give your response on a slider from 'totally unnatural' to 'totally natural'.</p>  <p style='text-align:left'>At the end of the experiment, we will ask you some optional demographic questions (age, gender, native language). The experiment will take about two minutes.</p>  <p style='text-align:left' font size=""1"">By clicking on the button below you agree to participate in this experiment, which is conducted by researchers at the University of Stuttgart. You may withdraw from this experiment at any time without penalty. The data collected will be anonymous and confidential. If you have any questions, you may contact the requester through Prolific's platform, or directly at st180735@stud.uni-stuttgart.de.</p>	0	html-button-response	0	18994	0.0-0.0	NA	NA	4c89273a-559b-4503-aad8-a4926120ebbe	2023-11-08 13:19:25 CET
10902	<b>Dawn:</b><em> What about Jessica? Why is she upset?</em><br> <b>Jack:</b><em> She is right that Tony had a drink last night.</em> <br> <br> <br> How natural is Jack's answer to Dawn's question?	14	html-slider-response	1	29897	0.0-1.0-0.0	50	NA	4c89273a-559b-4503-aad8-a4926120ebbe	2023-11-08 13:19:25 CET
9916	<b>Grace:</b><em> What about Emma? What did she do?</em><br> <b>Isabel:</b><em> James confessed that she studied on Saturday morning.</em> <br> <br> <br> How natural is Isabel's answer to Grace's question?	55	html-slider-response	2	39814	0.0-1.0-0.1	50	NA	4c89273a-559b-4503-aad8-a4926120ebbe	2023-11-08 13:19:25 CET
7290	<b>Nina:</b><em> What about David? Why is he smirking?</em><br> <b>Vincent:</b><em> He discovered that Mia drank two cocktails last night.</em> <br> <br> <br> How natural is Vincent's answer to Nina's question?	100	html-slider-response	3	47105	0.0-1.0-0.2	50	NA	4c89273a-559b-4503-aad8-a4926120ebbe	2023-11-08 13:19:25 CET
6896	<b>Richard:</b><em> What about John's kids? Are they in the garage?</em><br> <b>Susan:</b><em> Linda claimed that John's kids are good at math. </em> <br> <br> <br>How natural is Susan's answer to Richard's question?	0	html-slider-response	4	54001	0.0-1.0-0.3	50	NA	4c89273a-559b-4503-aad8-a4926120ebbe	2023-11-08 13:19:25 CET
19970	<b>Frank:</b><em> What about Danny? What did he do?</em><br> <b>Chloe:</b><em> Linda knows that he ate the last cupcake.</em> <br> <br> <br> How natural is Chloe's answer to Frank's question?	91	html-slider-response	5	73973	0.0-1.0-0.4	50	NA	4c89273a-559b-4503-aad8-a4926120ebbe	2023-11-08 13:19:25 CET
12952	<b>Daniel:</b><em> What about Patrick? Why is he angry?</em><br> <b>Nora:</b><em> He said that Sophia got a tattoo.</em> <br> <br> <br> How natural is Nora's answer to Daniel's question?	100	html-slider-response	6	86926	0.0-1.0-0.5	50	NA	4c89273a-559b-4503-aad8-a4926120ebbe	2023-11-08 13:19:25 CET
8375	<b>Michael:</b><em> What about Samantha? What did she buy? </em><br> <b>Elizabeth:</b><em> Samantha, who is really into fashion, bought a new hat.</em> <br> <br> <br>How natural is Elizabeth's answer to Michael's question?	60	html-slider-response	7	95302	0.0-1.0-0.6	50	NA	4c89273a-559b-4503-aad8-a4926120ebbe	2023-11-08 13:19:25 CET
11061	<b>Steven:</b><em> What about Jackson? What did he do?</em><br> <b>Leo:</b><em> Patricia thinks that he ran 10 miles.</em> <br> <br> <br> How natural is Leo's answer to Steven's question?	60	html-slider-response	8	106364	0.0-1.0-0.7	50	NA	4c89273a-559b-4503-aad8-a4926120ebbe	2023-11-08 13:19:25 CET
6680	<b>Mary:</b><em> Do these muffins have blueberries in them?</em><br> <b>John:</b><em> Linda claimed that she likes drinking coffee.</em> <br> <br> <br>How natural is John's answer to Mary's question?	7	html-slider-response	9	113046	0.0-1.0-0.8	50	NA	4c89273a-559b-4503-aad8-a4926120ebbe	2023-11-08 13:19:25 CET
6970	<b>Jennifer:</b><em> What about Ann? Where did she go?</em><br> <b>Robert:</b><em> Ann, who loves travelling, went to London.</em> <br> <br> <br>How natural is Robert's answer to Jennifer's question?	97	html-slider-response	10	120017	0.0-1.0-0.9	50	NA	4c89273a-559b-4503-aad8-a4926120ebbe	2023-11-08 13:19:25 CET
24386	NA	{""P0_Q0"":null,""age"":""37"",""gender"":""male"",""language"":""yes"",""amE"":""yes"",""comments"":""""}	survey	11	144439	0.0-2.0	NA	[]	4c89273a-559b-4503-aad8-a4926120ebbe	2023-11-08 13:19:25 CET
3323	<h3>Instructions</h3>  <p style='text-align:left'>In this experiment, you will read conversations between two people, as in this example, where Candy asks a question, and Lenny responds:</p>  <p style='text-align:left'> <b>Candy</b>: <i>What about the house? Is it big? </i> <br> <b>Lenny</b>: <i> Cassandra suggested that it's huge. </i> </p>  <p style='text-align:left'>We ask you to rate how natural Lenny's answer to Candy's question is. You will give your response on a slider from 'totally unnatural' to 'totally natural'.</p>  <p style='text-align:left'>At the end of the experiment, we will ask you some optional demographic questions (age, gender, native language). The experiment will take about two minutes.</p>  <p style='text-align:left' font size=""1"">By clicking on the button below you agree to participate in this experiment, which is conducted by researchers at the University of Stuttgart. You may withdraw from this experiment at any time without penalty. The data collected will be anonymous and confidential. If you have any questions, you may contact the requester through Prolific's platform, or directly at st180735@stud.uni-stuttgart.de.</p>	0	html-button-response	0	3329	0.0-0.0	NA	NA	0974e13b-db2f-4162-a93a-54a9928e7cee	2023-11-08 14:29:38 CET
9901	<b>Richard:</b><em> What about John's kids? Are they in the garage?</em><br> <b>Susan:</b><em> Linda claimed that John's kids are good at math. </em> <br> <br> <br>How natural is Susan's answer to Richard's question?	0	html-slider-response	1	13231	0.0-1.0-0.0	50	NA	0974e13b-db2f-4162-a93a-54a9928e7cee	2023-11-08 14:29:38 CET
10111	<b>Charlotte:</b><em> What about Jackson? What did he do?</em><br> <b>Noah:</b><em> Patricia thinks that he ran 10 miles.</em> <br> <br> <br> How natural is Noah's answer to Charlotte's question?	79	html-slider-response	2	23343	0.0-1.0-0.1	50	NA	0974e13b-db2f-4162-a93a-54a9928e7cee	2023-11-08 14:29:38 CET
7176	<b>Nina:</b><em> What about Danny? What did he do?</em><br> <b>Dawn:</b><em> Linda confessed that he ate the last cupcake.</em> <br> <br> <br> How natural is Dawn's answer to Nina's question?	76	html-slider-response	3	30519	0.0-1.0-0.2	50	NA	0974e13b-db2f-4162-a93a-54a9928e7cee	2023-11-08 14:29:38 CET
9327	<b>Michael:</b><em> What about Samantha? What did she buy? </em><br> <b>Elizabeth:</b><em> Samantha, who is really into fashion, bought a new hat.</em> <br> <br> <br>How natural is Elizabeth's answer to Michael's question?	57	html-slider-response	4	39847	0.0-1.0-0.3	50	NA	0974e13b-db2f-4162-a93a-54a9928e7cee	2023-11-08 14:29:38 CET
5279	<b>Mary:</b><em> Do these muffins have blueberries in them?</em><br> <b>John:</b><em> Linda claimed that she likes drinking coffee.</em> <br> <br> <br>How natural is John's answer to Mary's question?	0	html-slider-response	5	45127	0.0-1.0-0.4	50	NA	0974e13b-db2f-4162-a93a-54a9928e7cee	2023-11-08 14:29:38 CET
5368	<b>Nora:</b><em> What about Tony? What did he do?</em><br> <b>Alice:</b><em> Jessica is right that he had a drink last night.</em> <br> <br> <br> How natural is Alice's answer to Nora's question?	75	html-slider-response	6	50496	0.0-1.0-0.5	50	NA	0974e13b-db2f-4162-a93a-54a9928e7cee	2023-11-08 14:29:38 CET
5103	<b>Frank:</b><em> What about David? Why is he smirking?</em><br> <b>William:</b><em> He said that Mia drank two cocktails last night.</em> <br> <br> <br> How natural is William's answer to Frank's question?	64	html-slider-response	7	55600	0.0-1.0-0.6	50	NA	0974e13b-db2f-4162-a93a-54a9928e7cee	2023-11-08 14:29:38 CET
7071	<b>Leo:</b><em> What about James? Why is he annoyed?</em><br> <b>Steven:</b><em> He knows that Emma studied on Saturday morning.</em> <br> <br> <br> How natural is Steven's answer to Leo's question?	74	html-slider-response	8	62671	0.0-1.0-0.7	50	NA	0974e13b-db2f-4162-a93a-54a9928e7cee	2023-11-08 14:29:38 CET
6055	<b>Jennifer:</b><em> What about Ann? Where did she go?</em><br> <b>Robert:</b><em> Ann, who loves travelling, went to London.</em> <br> <br> <br>How natural is Robert's answer to Jennifer's question?	86	html-slider-response	9	68727	0.0-1.0-0.8	50	NA	0974e13b-db2f-4162-a93a-54a9928e7cee	2023-11-08 14:29:38 CET
3551	<b>Grace:</b><em> What about Patrick? Why is he angry?</em><br> <b>Jack:</b><em> He discovered that Sophia got a tattoo.</em> <br> <br> <br> How natural is Jack's answer to Grace's question?	91	html-slider-response	10	72279	0.0-1.0-0.9	50	NA	0974e13b-db2f-4162-a93a-54a9928e7cee	2023-11-08 14:29:38 CET
13270	NA	{""P0_Q0"":null,""age"":""28"",""gender"":""male"",""language"":""yes"",""amE"":""yes"",""comments"":""""}	survey	11	85592	0.0-2.0	NA	[]	0974e13b-db2f-4162-a93a-54a9928e7cee	2023-11-08 14:29:38 CET
8247	<h3>Instructions</h3>  <p style='text-align:left'>In this experiment, you will read conversations between two people, as in this example, where Candy asks a question, and Lenny responds:</p>  <p style='text-align:left'> <b>Candy</b>: <i>What about the house? Is it big? </i> <br> <b>Lenny</b>: <i> Cassandra suggested that it's huge. </i> </p>  <p style='text-align:left'>We ask you to rate how natural Lenny's answer to Candy's question is. You will give your response on a slider from 'totally unnatural' to 'totally natural'.</p>  <p style='text-align:left'>At the end of the experiment, we will ask you some optional demographic questions (age, gender, native language). The experiment will take about two minutes.</p>  <p style='text-align:left' font size=""1"">By clicking on the button below you agree to participate in this experiment, which is conducted by researchers at the University of Stuttgart. You may withdraw from this experiment at any time without penalty. The data collected will be anonymous and confidential. If you have any questions, you may contact the requester through Prolific's platform, or directly at st180735@stud.uni-stuttgart.de.</p>	0	html-button-response	0	8255	0.0-0.0	NA	NA	187dcdfc-6d43-4ba5-ba2b-ae997344e34a	2023-11-08 14:42:11 CET
7790	<b>Daniel:</b><em> What about Tony? What did he do?</em><br> <b>Ken:</b><em> Jessica confessed that he had a drink last night.</em> <br> <br> <br> How natural is Ken's answer to Daniel's question?	79	html-slider-response	1	16047	0.0-1.0-0.0	50	NA	187dcdfc-6d43-4ba5-ba2b-ae997344e34a	2023-11-08 14:42:11 CET
4388	<b>Nora:</b><em> What about Jackson? What did he do?</em><br> <b>Bob:</b><em> Patricia knows that he ran 10 miles.</em> <br> <br> <br> How natural is Bob's answer to Nora's question?	38	html-slider-response	2	20436	0.0-1.0-0.1	50	NA	187dcdfc-6d43-4ba5-ba2b-ae997344e34a	2023-11-08 14:42:11 CET
6071	<b>Michael:</b><em> What about Samantha? What did she buy? </em><br> <b>Elizabeth:</b><em> Samantha, who is really into fashion, bought a new hat.</em> <br> <br> <br>How natural is Elizabeth's answer to Michael's question?	37	html-slider-response	3	26508	0.0-1.0-0.2	50	NA	187dcdfc-6d43-4ba5-ba2b-ae997344e34a	2023-11-08 14:42:11 CET
3347	<b>Jennifer:</b><em> What about Ann? Where did she go?</em><br> <b>Robert:</b><em> Ann, who loves travelling, went to London.</em> <br> <br> <br>How natural is Robert's answer to Jennifer's question?	36	html-slider-response	4	29857	0.0-1.0-0.3	50	NA	187dcdfc-6d43-4ba5-ba2b-ae997344e34a	2023-11-08 14:42:11 CET
5985	<b>Richard:</b><em> What about John's kids? Are they in the garage?</em><br> <b>Susan:</b><em> Linda claimed that John's kids are good at math. </em> <br> <br> <br>How natural is Susan's answer to Richard's question?	19	html-slider-response	5	35842	0.0-1.0-0.4	50	NA	187dcdfc-6d43-4ba5-ba2b-ae997344e34a	2023-11-08 14:42:11 CET
4302	<b>Oliver:</b><em> What about David? Why is he smirking?</em><br> <b>Frank:</b><em> He said that Mia drank two cocktails last night.</em> <br> <br> <br> How natural is Frank's answer to Oliver's question?	93	html-slider-response	6	40146	0.0-1.0-0.5	50	NA	187dcdfc-6d43-4ba5-ba2b-ae997344e34a	2023-11-08 14:42:11 CET
3613	<b>Charlotte:</b><em> What about Linda? Why is she pouting?</em><br> <b>Charlie:</b><em> She thinks that Danny ate the last cupcake.</em> <br> <br> <br> How natural is Charlie's answer to Charlotte's question?	97	html-slider-response	7	43760	0.0-1.0-0.6	50	NA	187dcdfc-6d43-4ba5-ba2b-ae997344e34a	2023-11-08 14:42:11 CET
3637	<b>Dawn:</b><em> What about Sophia? What did she do?</em><br> <b>Steven:</b><em> Patrick is right that she got a tattoo.</em> <br> <br> <br> How natural is Steven's answer to Dawn's question?	24	html-slider-response	8	47398	0.0-1.0-0.7	50	NA	187dcdfc-6d43-4ba5-ba2b-ae997344e34a	2023-11-08 14:42:11 CET
7011	<b>Nina:</b><em> What about James? Why is he annoyed?</em><br> <b>Leo:</b><em> He discovered that Emma studied on Saturday morning.</em> <br> <br> <br> How natural is Leo's answer to Nina's question?	67	html-slider-response	9	54410	0.0-1.0-0.8	50	NA	187dcdfc-6d43-4ba5-ba2b-ae997344e34a	2023-11-08 14:42:11 CET
3387	<b>Mary:</b><em> Do these muffins have blueberries in them?</em><br> <b>John:</b><em> Linda claimed that she likes drinking coffee.</em> <br> <br> <br>How natural is John's answer to Mary's question?	7	html-slider-response	10	57798	0.0-1.0-0.9	50	NA	187dcdfc-6d43-4ba5-ba2b-ae997344e34a	2023-11-08 14:42:11 CET
6255	NA	{""P0_Q0"":null,""age"":""30"",""gender"":""female"",""language"":""yes"",""amE"":""yes"",""comments"":""""}	survey	11	64100	0.0-2.0	NA	[]	187dcdfc-6d43-4ba5-ba2b-ae997344e34a	2023-11-08 14:42:11 CET
16627	<h3>Instructions</h3>  <p style='text-align:left'>In this experiment, you will read conversations between two people, as in this example, where Candy asks a question, and Lenny responds:</p>  <p style='text-align:left'> <b>Candy</b>: <i>What about the house? Is it big? </i> <br> <b>Lenny</b>: <i> Cassandra suggested that it's huge. </i> </p>  <p style='text-align:left'>We ask you to rate how natural Lenny's answer to Candy's question is. You will give your response on a slider from 'totally unnatural' to 'totally natural'.</p>  <p style='text-align:left'>At the end of the experiment, we will ask you some optional demographic questions (age, gender, native language). The experiment will take about two minutes.</p>  <p style='text-align:left' font size=""1"">By clicking on the button below you agree to participate in this experiment, which is conducted by researchers at the University of Stuttgart. You may withdraw from this experiment at any time without penalty. The data collected will be anonymous and confidential. If you have any questions, you may contact the requester through Prolific's platform, or directly at st180735@stud.uni-stuttgart.de.</p>	0	html-button-response	0	16641	0.0-0.0	NA	NA	c3b41785-b30a-4ab9-8e15-6ce8623f76a4	2023-11-08 14:46:33 CET
12338	<b>Michael:</b><em> What about Samantha? What did she buy? </em><br> <b>Elizabeth:</b><em> Samantha, who is really into fashion, bought a new hat.</em> <br> <br> <br>How natural is Elizabeth's answer to Michael's question?	38	html-slider-response	1	28982	0.0-1.0-0.0	50	NA	c3b41785-b30a-4ab9-8e15-6ce8623f76a4	2023-11-08 14:46:33 CET
13704	<b>Noah:</b><em> What about James? Why is he annoyed?</em><br> <b>Isabel:</b><em> He said that Emma studied on Saturday morning.</em> <br> <br> <br> How natural is Isabel's answer to Noah's question?	83	html-slider-response	2	42689	0.0-1.0-0.1	50	NA	c3b41785-b30a-4ab9-8e15-6ce8623f76a4	2023-11-08 14:46:33 CET
7824	<b>Jennifer:</b><em> What about Ann? Where did she go?</em><br> <b>Robert:</b><em> Ann, who loves travelling, went to London.</em> <br> <br> <br>How natural is Robert's answer to Jennifer's question?	20	html-slider-response	3	50515	0.0-1.0-0.2	50	NA	c3b41785-b30a-4ab9-8e15-6ce8623f76a4	2023-11-08 14:46:33 CET
10348	<b>Steven:</b><em> What about David? Why is he smirking?</em><br> <b>Alice:</b><em> He is right that Mia drank two cocktails last night.</em> <br> <br> <br> How natural is Alice's answer to Steven's question?	45	html-slider-response	4	60865	0.0-1.0-0.3	50	NA	c3b41785-b30a-4ab9-8e15-6ce8623f76a4	2023-11-08 14:46:33 CET
8330	<b>Nina:</b><em> What about Jackson? What did he do?</em><br> <b>Frank:</b><em> Patricia discovered that he ran 10 miles.</em> <br> <br> <br> How natural is Frank's answer to Nina's question?	67	html-slider-response	5	69196	0.0-1.0-0.4	50	NA	c3b41785-b30a-4ab9-8e15-6ce8623f76a4	2023-11-08 14:46:33 CET
9501	<b>Mary:</b><em> Do these muffins have blueberries in them?</em><br> <b>John:</b><em> Linda claimed that she likes drinking coffee.</em> <br> <br> <br>How natural is John's answer to Mary's question?	3	html-slider-response	6	78699	0.0-1.0-0.5	50	NA	c3b41785-b30a-4ab9-8e15-6ce8623f76a4	2023-11-08 14:46:33 CET
11560	<b>Daniel:</b><em> What about Sophia? What did she do?</em><br> <b>Vincent:</b><em> Patrick thinks that she got a tattoo.</em> <br> <br> <br> How natural is Vincent's answer to Daniel's question?	95	html-slider-response	7	90261	0.0-1.0-0.6	50	NA	c3b41785-b30a-4ab9-8e15-6ce8623f76a4	2023-11-08 14:46:33 CET
5713	<b>Richard:</b><em> What about John's kids? Are they in the garage?</em><br> <b>Susan:</b><em> Linda claimed that John's kids are good at math. </em> <br> <br> <br>How natural is Susan's answer to Richard's question?	4	html-slider-response	8	95976	0.0-1.0-0.7	50	NA	c3b41785-b30a-4ab9-8e15-6ce8623f76a4	2023-11-08 14:46:33 CET
5867	<b>Clare:</b><em> What about Tony? What did he do?</em><br> <b>Nora:</b><em> Jessica knows that he had a drink last night.</em> <br> <br> <br> How natural is Nora's answer to Clare's question?	73	html-slider-response	9	101845	0.0-1.0-0.8	50	NA	c3b41785-b30a-4ab9-8e15-6ce8623f76a4	2023-11-08 14:46:33 CET
11285	<b>Leo:</b><em> What about Linda? Why is she pouting?</em><br> <b>Ken:</b><em> She confessed that Danny ate the last cupcake.</em> <br> <br> <br> How natural is Ken's answer to Leo's question?	62	html-slider-response	10	113131	0.0-1.0-0.9	50	NA	c3b41785-b30a-4ab9-8e15-6ce8623f76a4	2023-11-08 14:46:33 CET
10219	NA	{""P0_Q0"":null,""age"":""54"",""gender"":""male"",""language"":""yes"",""amE"":""yes"",""comments"":""""}	survey	11	123442	0.0-2.0	NA	[]	c3b41785-b30a-4ab9-8e15-6ce8623f76a4	2023-11-08 14:46:33 CET
16169	<h3>Instructions</h3>  <p style='text-align:left'>In this experiment, you will read conversations between two people, as in this example, where Candy asks a question, and Lenny responds:</p>  <p style='text-align:left'> <b>Candy</b>: <i>What about the house? Is it big? </i> <br> <b>Lenny</b>: <i> Cassandra suggested that it's huge. </i> </p>  <p style='text-align:left'>We ask you to rate how natural Lenny's answer to Candy's question is. You will give your response on a slider from 'totally unnatural' to 'totally natural'.</p>  <p style='text-align:left'>At the end of the experiment, we will ask you some optional demographic questions (age, gender, native language). The experiment will take about two minutes.</p>  <p style='text-align:left' font size=""1"">By clicking on the button below you agree to participate in this experiment, which is conducted by researchers at the University of Stuttgart. You may withdraw from this experiment at any time without penalty. The data collected will be anonymous and confidential. If you have any questions, you may contact the requester through Prolific's platform, or directly at st180735@stud.uni-stuttgart.de.</p>	0	html-button-response	0	16176	0.0-0.0	NA	NA	d2084e00-0a18-4476-8879-943866bfb19b	2023-11-08 14:47:45 CET
10949	<b>Ken:</b><em> What about Patricia? Why is she proud?</em><br> <b>Isabel:</b><em> She is right that Jackson ran 10 miles.</em> <br> <br> <br> How natural is Isabel's answer to Ken's question?	26	html-slider-response	1	27126	0.0-1.0-0.0	50	NA	d2084e00-0a18-4476-8879-943866bfb19b	2023-11-08 14:47:45 CET
4891	<b>Steven:</b><em> What about David? Why is he smirking?</em><br> <b>Oliver:</b><em> He knows that Mia drank two cocktails last night.</em> <br> <br> <br> How natural is Oliver's answer to Steven's question?	100	html-slider-response	2	32018	0.0-1.0-0.1	50	NA	d2084e00-0a18-4476-8879-943866bfb19b	2023-11-08 14:47:45 CET
6491	<b>Charlie:</b><em> What about Emma? What did she do?</em><br> <b>Vincent:</b><em> James confessed that she studied on Saturday morning.</em> <br> <br> <br> How natural is Vincent's answer to Charlie's question?	36	html-slider-response	3	38510	0.0-1.0-0.2	50	NA	d2084e00-0a18-4476-8879-943866bfb19b	2023-11-08 14:47:45 CET
4445	<b>Michael:</b><em> What about Samantha? What did she buy? </em><br> <b>Elizabeth:</b><em> Samantha, who is really into fashion, bought a new hat.</em> <br> <br> <br>How natural is Elizabeth's answer to Michael's question?	100	html-slider-response	4	42957	0.0-1.0-0.3	50	NA	d2084e00-0a18-4476-8879-943866bfb19b	2023-11-08 14:47:45 CET
5659	<b>Richard:</b><em> What about John's kids? Are they in the garage?</em><br> <b>Susan:</b><em> Linda claimed that John's kids are good at math. </em> <br> <br> <br>How natural is Susan's answer to Richard's question?	0	html-slider-response	5	48616	0.0-1.0-0.4	50	NA	d2084e00-0a18-4476-8879-943866bfb19b	2023-11-08 14:47:45 CET
4621	<b>Mary:</b><em> Do these muffins have blueberries in them?</em><br> <b>John:</b><em> Linda claimed that she likes drinking coffee.</em> <br> <br> <br>How natural is John's answer to Mary's question?	0	html-slider-response	6	53238	0.0-1.0-0.5	50	NA	d2084e00-0a18-4476-8879-943866bfb19b	2023-11-08 14:47:45 CET
5509	<b>Jennifer:</b><em> What about Ann? Where did she go?</em><br> <b>Robert:</b><em> Ann, who loves travelling, went to London.</em> <br> <br> <br>How natural is Robert's answer to Jennifer's question?	100	html-slider-response	7	58748	0.0-1.0-0.6	50	NA	d2084e00-0a18-4476-8879-943866bfb19b	2023-11-08 14:47:45 CET
3977	<b>Daniel:</b><em> What about Jessica? Why is she upset?</em><br> <b>Frank:</b><em> She said that Tony had a drink last night.</em> <br> <br> <br> How natural is Frank's answer to Daniel's question?	100	html-slider-response	8	62726	0.0-1.0-0.7	50	NA	d2084e00-0a18-4476-8879-943866bfb19b	2023-11-08 14:47:45 CET
5975	<b>Grace:</b><em> What about Sophia? What did she do?</em><br> <b>Nina:</b><em> Patrick thinks that she got a tattoo.</em> <br> <br> <br> How natural is Nina's answer to Grace's question?	100	html-slider-response	9	68702	0.0-1.0-0.8	50	NA	d2084e00-0a18-4476-8879-943866bfb19b	2023-11-08 14:47:45 CET
7507	<b>Clare:</b><em> What about Danny? What did he do?</em><br> <b>Dawn:</b><em> Linda discovered that he ate the last cupcake.</em> <br> <br> <br> How natural is Dawn's answer to Clare's question?	0	html-slider-response	10	76210	0.0-1.0-0.9	50	NA	d2084e00-0a18-4476-8879-943866bfb19b	2023-11-08 14:47:45 CET
14277	NA	{""P0_Q0"":null,""age"":""23"",""gender"":""male"",""language"":""yes"",""amE"":""yes"",""comments"":""nothing comes to mind""}	survey	11	90536	0.0-2.0	NA	[]	d2084e00-0a18-4476-8879-943866bfb19b	2023-11-08 14:47:45 CET
15282	<h3>Instructions</h3>  <p style='text-align:left'>In this experiment, you will read conversations between two people, as in this example, where Candy asks a question, and Lenny responds:</p>  <p style='text-align:left'> <b>Candy</b>: <i>What about the house? Is it big? </i> <br> <b>Lenny</b>: <i> Cassandra suggested that it's huge. </i> </p>  <p style='text-align:left'>We ask you to rate how natural Lenny's answer to Candy's question is. You will give your response on a slider from 'totally unnatural' to 'totally natural'.</p>  <p style='text-align:left'>At the end of the experiment, we will ask you some optional demographic questions (age, gender, native language). The experiment will take about two minutes.</p>  <p style='text-align:left' font size=""1"">By clicking on the button below you agree to participate in this experiment, which is conducted by researchers at the University of Stuttgart. You may withdraw from this experiment at any time without penalty. The data collected will be anonymous and confidential. If you have any questions, you may contact the requester through Prolific's platform, or directly at st180735@stud.uni-stuttgart.de.</p>	0	html-button-response	0	15300	0.0-0.0	NA	NA	475f07ae-7825-4221-8924-257233245a04	2023-11-08 14:47:47 CET
17239	<b>Bob:</b><em> What about David? Why is he smirking?</em><br> <b>Frank:</b><em> He discovered that Mia drank two cocktails last night.</em> <br> <br> <br> How natural is Frank's answer to Bob's question?	77	html-slider-response	1	32551	0.0-1.0-0.0	50	NA	475f07ae-7825-4221-8924-257233245a04	2023-11-08 14:47:47 CET
11664	<b>Nora:</b><em> What about Tony? What did he do?</em><br> <b>Nina:</b><em> Jessica said that he had a drink last night.</em> <br> <br> <br> How natural is Nina's answer to Nora's question?	77	html-slider-response	2	44221	0.0-1.0-0.1	50	NA	475f07ae-7825-4221-8924-257233245a04	2023-11-08 14:47:47 CET
9791	<b>Jennifer:</b><em> What about Ann? Where did she go?</em><br> <b>Robert:</b><em> Ann, who loves travelling, went to London.</em> <br> <br> <br>How natural is Robert's answer to Jennifer's question?	9	html-slider-response	3	54027	0.0-1.0-0.2	50	NA	475f07ae-7825-4221-8924-257233245a04	2023-11-08 14:47:47 CET
11575	<b>Richard:</b><em> What about John's kids? Are they in the garage?</em><br> <b>Susan:</b><em> Linda claimed that John's kids are good at math. </em> <br> <br> <br>How natural is Susan's answer to Richard's question?	3	html-slider-response	4	65605	0.0-1.0-0.3	50	NA	475f07ae-7825-4221-8924-257233245a04	2023-11-08 14:47:47 CET
16886	<b>Clare:</b><em> What about Patrick? Why is he angry?</em><br> <b>Dawn:</b><em> He confessed that Sophia got a tattoo.</em> <br> <br> <br> How natural is Dawn's answer to Clare's question?	40	html-slider-response	5	82498	0.0-1.0-0.4	50	NA	475f07ae-7825-4221-8924-257233245a04	2023-11-08 14:47:47 CET
9259	<b>Chloe:</b><em> What about Emma? What did she do?</em><br> <b>Jack:</b><em> James thinks that she studied on Saturday morning.</em> <br> <br> <br> How natural is Jack's answer to Chloe's question?	38	html-slider-response	6	91761	0.0-1.0-0.5	50	NA	475f07ae-7825-4221-8924-257233245a04	2023-11-08 14:47:47 CET
11109	<b>Noah:</b><em> What about Patricia? Why is she proud?</em><br> <b>Vincent:</b><em> She knows that Jackson ran 10 miles.</em> <br> <br> <br> How natural is Vincent's answer to Noah's question?	64	html-slider-response	7	102876	0.0-1.0-0.6	50	NA	475f07ae-7825-4221-8924-257233245a04	2023-11-08 14:47:47 CET
8079	<b>Michael:</b><em> What about Samantha? What did she buy? </em><br> <b>Elizabeth:</b><em> Samantha, who is really into fashion, bought a new hat.</em> <br> <br> <br>How natural is Elizabeth's answer to Michael's question?	6	html-slider-response	8	110959	0.0-1.0-0.7	50	NA	475f07ae-7825-4221-8924-257233245a04	2023-11-08 14:47:47 CET
6568	<b>Mary:</b><em> Do these muffins have blueberries in them?</em><br> <b>John:</b><em> Linda claimed that she likes drinking coffee.</em> <br> <br> <br>How natural is John's answer to Mary's question?	0	html-slider-response	9	117532	0.0-1.0-0.8	50	NA	475f07ae-7825-4221-8924-257233245a04	2023-11-08 14:47:47 CET
10493	<b>William:</b><em> What about Danny? What did he do?</em><br> <b>Grace:</b><em> Linda is right that he ate the last cupcake.</em> <br> <br> <br> How natural is Grace's answer to William's question?	4	html-slider-response	10	128030	0.0-1.0-0.9	50	NA	475f07ae-7825-4221-8924-257233245a04	2023-11-08 14:47:47 CET
16811	NA	{""P0_Q0"":null,""age"":""73"",""gender"":""female"",""language"":""yes"",""amE"":""yes"",""comments"":""""}	survey	11	144981	0.0-2.0	NA	[]	475f07ae-7825-4221-8924-257233245a04	2023-11-08 14:47:47 CET
14793	<h3>Instructions</h3>  <p style='text-align:left'>In this experiment, you will read conversations between two people, as in this example, where Candy asks a question, and Lenny responds:</p>  <p style='text-align:left'> <b>Candy</b>: <i>What about the house? Is it big? </i> <br> <b>Lenny</b>: <i> Cassandra suggested that it's huge. </i> </p>  <p style='text-align:left'>We ask you to rate how natural Lenny's answer to Candy's question is. You will give your response on a slider from 'totally unnatural' to 'totally natural'.</p>  <p style='text-align:left'>At the end of the experiment, we will ask you some optional demographic questions (age, gender, native language). The experiment will take about two minutes.</p>  <p style='text-align:left' font size=""1"">By clicking on the button below you agree to participate in this experiment, which is conducted by researchers at the University of Stuttgart. You may withdraw from this experiment at any time without penalty. The data collected will be anonymous and confidential. If you have any questions, you may contact the requester through Prolific's platform, or directly at st180735@stud.uni-stuttgart.de.</p>	0	html-button-response	0	14814	0.0-0.0	NA	NA	f721a8d1-16e5-411e-92aa-abfca05a871f	2023-11-08 14:48:27 CET
24457	<b>Mary:</b><em> Do these muffins have blueberries in them?</em><br> <b>John:</b><em> Linda claimed that she likes drinking coffee.</em> <br> <br> <br>How natural is John's answer to Mary's question?	0	html-slider-response	1	39273	0.0-1.0-0.0	50	NA	f721a8d1-16e5-411e-92aa-abfca05a871f	2023-11-08 14:48:27 CET
25412	<b>Michael:</b><em> What about Samantha? What did she buy? </em><br> <b>Elizabeth:</b><em> Samantha, who is really into fashion, bought a new hat.</em> <br> <br> <br>How natural is Elizabeth's answer to Michael's question?	98	html-slider-response	2	64685	0.0-1.0-0.1	50	NA	f721a8d1-16e5-411e-92aa-abfca05a871f	2023-11-08 14:48:27 CET
22127	<b>Jack:</b><em> What about Emma? What did she do?</em><br> <b>Frank:</b><em> James confessed that she studied on Saturday morning.</em> <br> <br> <br> How natural is Frank's answer to Jack's question?	61	html-slider-response	3	86814	0.0-1.0-0.2	50	NA	f721a8d1-16e5-411e-92aa-abfca05a871f	2023-11-08 14:48:27 CET
12215	<b>Daniel:</b><em> What about Jessica? Why is she upset?</em><br> <b>Nora:</b><em> She knows that Tony had a drink last night.</em> <br> <br> <br> How natural is Nora's answer to Daniel's question?	100	html-slider-response	4	99032	0.0-1.0-0.3	50	NA	f721a8d1-16e5-411e-92aa-abfca05a871f	2023-11-08 14:48:27 CET
9148	<b>Noah:</b><em> What about David? Why is he smirking?</em><br> <b>William:</b><em> He is right that Mia drank two cocktails last night.</em> <br> <br> <br> How natural is William's answer to Noah's question?	4	html-slider-response	5	108182	0.0-1.0-0.4	50	NA	f721a8d1-16e5-411e-92aa-abfca05a871f	2023-11-08 14:48:27 CET
12297	<b>Oliver:</b><em> What about Danny? What did he do?</em><br> <b>Leo:</b><em> Linda discovered that he ate the last cupcake.</em> <br> <br> <br> How natural is Leo's answer to Oliver's question?	100	html-slider-response	6	120481	0.0-1.0-0.5	50	NA	f721a8d1-16e5-411e-92aa-abfca05a871f	2023-11-08 14:48:27 CET
10827	<b>Jennifer:</b><em> What about Ann? Where did she go?</em><br> <b>Robert:</b><em> Ann, who loves travelling, went to London.</em> <br> <br> <br>How natural is Robert's answer to Jennifer's question?	94	html-slider-response	7	131309	0.0-1.0-0.6	50	NA	f721a8d1-16e5-411e-92aa-abfca05a871f	2023-11-08 14:48:27 CET
15028	<b>Chloe:</b><em> What about Sophia? What did she do?</em><br> <b>Grace:</b><em> Patrick thinks that she got a tattoo.</em> <br> <br> <br> How natural is Grace's answer to Chloe's question?	100	html-slider-response	8	146340	0.0-1.0-0.7	50	NA	f721a8d1-16e5-411e-92aa-abfca05a871f	2023-11-08 14:48:27 CET
11500	<b>Richard:</b><em> What about John's kids? Are they in the garage?</em><br> <b>Susan:</b><em> Linda claimed that John's kids are good at math. </em> <br> <br> <br>How natural is Susan's answer to Richard's question?	32	html-slider-response	9	157840	0.0-1.0-0.8	50	NA	f721a8d1-16e5-411e-92aa-abfca05a871f	2023-11-08 14:48:27 CET
12502	<b>Nina:</b><em> What about Patricia? Why is she proud?</em><br> <b>Bob:</b><em> She said that Jackson ran 10 miles.</em> <br> <br> <br> How natural is Bob's answer to Nina's question?	100	html-slider-response	10	170343	0.0-1.0-0.9	50	NA	f721a8d1-16e5-411e-92aa-abfca05a871f	2023-11-08 14:48:27 CET
19575	NA	{""P0_Q0"":null,""age"":""34"",""gender"":""female"",""language"":""yes"",""amE"":""yes"",""comments"":""""}	survey	11	189970	0.0-2.0	NA	[]	f721a8d1-16e5-411e-92aa-abfca05a871f	2023-11-08 14:48:27 CET
1886	<h3>Instructions</h3>  <p style='text-align:left'>In this experiment, you will read conversations between two people, as in this example, where Candy asks a question, and Lenny responds:</p>  <p style='text-align:left'> <b>Candy</b>: <i>What about the house? Is it big? </i> <br> <b>Lenny</b>: <i> Cassandra suggested that it's huge. </i> </p>  <p style='text-align:left'>We ask you to rate how natural Lenny's answer to Candy's question is. You will give your response on a slider from 'totally unnatural' to 'totally natural'.</p>  <p style='text-align:left'>At the end of the experiment, we will ask you some optional demographic questions (age, gender, native language). The experiment will take about two minutes.</p>  <p style='text-align:left' font size=""1"">By clicking on the button below you agree to participate in this experiment, which is conducted by researchers at the University of Stuttgart. You may withdraw from this experiment at any time without penalty. The data collected will be anonymous and confidential. If you have any questions, you may contact the requester through Prolific's platform, or directly at st180735@stud.uni-stuttgart.de.</p>	0	html-button-response	0	1894	0.0-0.0	NA	NA	06f67217-ea33-4057-b121-7199e75f20b0	2023-11-08 14:48:47 CET
8150	<b>Jennifer:</b><em> What about Ann? Where did she go?</em><br> <b>Robert:</b><em> Ann, who loves travelling, went to London.</em> <br> <br> <br>How natural is Robert's answer to Jennifer's question?	24	html-slider-response	1	10046	0.0-1.0-0.0	50	NA	06f67217-ea33-4057-b121-7199e75f20b0	2023-11-08 14:48:47 CET
5387	<b>Michael:</b><em> What about Samantha? What did she buy? </em><br> <b>Elizabeth:</b><em> Samantha, who is really into fashion, bought a new hat.</em> <br> <br> <br>How natural is Elizabeth's answer to Michael's question?	24	html-slider-response	2	15434	0.0-1.0-0.1	50	NA	06f67217-ea33-4057-b121-7199e75f20b0	2023-11-08 14:48:47 CET
7064	<b>Ken:</b><em> What about Linda? Why is she pouting?</em><br> <b>Clare:</b><em> She is right that Danny ate the last cupcake.</em> <br> <br> <br> How natural is Clare's answer to Ken's question?	0	html-slider-response	3	22500	0.0-1.0-0.2	50	NA	06f67217-ea33-4057-b121-7199e75f20b0	2023-11-08 14:48:47 CET
4198	<b>Mary:</b><em> Do these muffins have blueberries in them?</em><br> <b>John:</b><em> Linda claimed that she likes drinking coffee.</em> <br> <br> <br>How natural is John's answer to Mary's question?	0	html-slider-response	4	26698	0.0-1.0-0.3	50	NA	06f67217-ea33-4057-b121-7199e75f20b0	2023-11-08 14:48:47 CET
6340	<b>William:</b><em> What about Jackson? What did he do?</em><br> <b>Vincent:</b><em> Patricia thinks that he ran 10 miles.</em> <br> <br> <br> How natural is Vincent's answer to William's question?	94	html-slider-response	5	33041	0.0-1.0-0.4	50	NA	06f67217-ea33-4057-b121-7199e75f20b0	2023-11-08 14:48:47 CET
7214	<b>Oliver:</b><em> What about James? Why is he annoyed?</em><br> <b>Nora:</b><em> He said that Emma studied on Saturday morning.</em> <br> <br> <br> How natural is Nora's answer to Oliver's question?	38	html-slider-response	6	40256	0.0-1.0-0.5	50	NA	06f67217-ea33-4057-b121-7199e75f20b0	2023-11-08 14:48:47 CET
9565	<b>Bob:</b><em> What about David? Why is he smirking?</em><br> <b>Noah:</b><em> He confessed that Mia drank two cocktails last night.</em> <br> <br> <br> How natural is Noah's answer to Bob's question?	42	html-slider-response	7	49823	0.0-1.0-0.6	50	NA	06f67217-ea33-4057-b121-7199e75f20b0	2023-11-08 14:48:47 CET
7309	<b>Dawn:</b><em> What about Sophia? What did she do?</em><br> <b>Daniel:</b><em> Patrick knows that she got a tattoo.</em> <br> <br> <br> How natural is Daniel's answer to Dawn's question?	10	html-slider-response	8	57132	0.0-1.0-0.7	50	NA	06f67217-ea33-4057-b121-7199e75f20b0	2023-11-08 14:48:47 CET
4300	<b>Richard:</b><em> What about John's kids? Are they in the garage?</em><br> <b>Susan:</b><em> Linda claimed that John's kids are good at math. </em> <br> <br> <br>How natural is Susan's answer to Richard's question?	0	html-slider-response	9	61434	0.0-1.0-0.8	50	NA	06f67217-ea33-4057-b121-7199e75f20b0	2023-11-08 14:48:47 CET
4708	<b>Leo:</b><em> What about Tony? What did he do?</em><br> <b>Alice:</b><em> Jessica discovered that he had a drink last night.</em> <br> <br> <br> How natural is Alice's answer to Leo's question?	74	html-slider-response	10	66144	0.0-1.0-0.9	50	NA	06f67217-ea33-4057-b121-7199e75f20b0	2023-11-08 14:48:47 CET
9064	NA	{""P0_Q0"":null,""age"":""46"",""gender"":""female"",""language"":""yes"",""amE"":""yes"",""comments"":""""}	survey	11	75251	0.0-2.0	NA	[]	06f67217-ea33-4057-b121-7199e75f20b0	2023-11-08 14:48:47 CET
5244	<h3>Instructions</h3>  <p style='text-align:left'>In this experiment, you will read conversations between two people, as in this example, where Candy asks a question, and Lenny responds:</p>  <p style='text-align:left'> <b>Candy</b>: <i>What about the house? Is it big? </i> <br> <b>Lenny</b>: <i> Cassandra suggested that it's huge. </i> </p>  <p style='text-align:left'>We ask you to rate how natural Lenny's answer to Candy's question is. You will give your response on a slider from 'totally unnatural' to 'totally natural'.</p>  <p style='text-align:left'>At the end of the experiment, we will ask you some optional demographic questions (age, gender, native language). The experiment will take about two minutes.</p>  <p style='text-align:left' font size=""1"">By clicking on the button below you agree to participate in this experiment, which is conducted by researchers at the University of Stuttgart. You may withdraw from this experiment at any time without penalty. The data collected will be anonymous and confidential. If you have any questions, you may contact the requester through Prolific's platform, or directly at st180735@stud.uni-stuttgart.de.</p>	0	html-button-response	0	5254	0.0-0.0	NA	NA	60ac4d1a-4891-4832-8991-d4d47198428f	2023-11-08 14:51:18 CET
10417	<b>Michael:</b><em> What about Samantha? What did she buy? </em><br> <b>Elizabeth:</b><em> Samantha, who is really into fashion, bought a new hat.</em> <br> <br> <br>How natural is Elizabeth's answer to Michael's question?	21	html-slider-response	1	15674	0.0-1.0-0.0	50	NA	60ac4d1a-4891-4832-8991-d4d47198428f	2023-11-08 14:51:18 CET
5213	<b>Steven:</b><em> What about James? Why is he annoyed?</em><br> <b>Charlotte:</b><em> He discovered that Emma studied on Saturday morning.</em> <br> <br> <br> How natural is Charlotte's answer to Steven's question?	37	html-slider-response	2	20890	0.0-1.0-0.1	50	NA	60ac4d1a-4891-4832-8991-d4d47198428f	2023-11-08 14:51:18 CET
6939	<b>William:</b><em> What about David? Why is he smirking?</em><br> <b>Charlie:</b><em> He confessed that Mia drank two cocktails last night.</em> <br> <br> <br> How natural is Charlie's answer to William's question?	21	html-slider-response	3	27830	0.0-1.0-0.2	50	NA	60ac4d1a-4891-4832-8991-d4d47198428f	2023-11-08 14:51:18 CET
4762	<b>Mary:</b><em> Do these muffins have blueberries in them?</em><br> <b>John:</b><em> Linda claimed that she likes drinking coffee.</em> <br> <br> <br>How natural is John's answer to Mary's question?	0	html-slider-response	4	32594	0.0-1.0-0.3	50	NA	60ac4d1a-4891-4832-8991-d4d47198428f	2023-11-08 14:51:18 CET
9484	<b>Alice:</b><em> What about Jackson? What did he do?</em><br> <b>Jack:</b><em> Patricia said that he ran 10 miles.</em> <br> <br> <br> How natural is Jack's answer to Alice's question?	76	html-slider-response	5	42079	0.0-1.0-0.4	50	NA	60ac4d1a-4891-4832-8991-d4d47198428f	2023-11-08 14:51:18 CET
8147	<b>Richard:</b><em> What about John's kids? Are they in the garage?</em><br> <b>Susan:</b><em> Linda claimed that John's kids are good at math. </em> <br> <br> <br>How natural is Susan's answer to Richard's question?	8	html-slider-response	6	50228	0.0-1.0-0.5	50	NA	60ac4d1a-4891-4832-8991-d4d47198428f	2023-11-08 14:51:18 CET
6225	<b>Jennifer:</b><em> What about Ann? Where did she go?</em><br> <b>Robert:</b><em> Ann, who loves travelling, went to London.</em> <br> <br> <br>How natural is Robert's answer to Jennifer's question?	2	html-slider-response	7	56454	0.0-1.0-0.6	50	NA	60ac4d1a-4891-4832-8991-d4d47198428f	2023-11-08 14:51:18 CET
7473	<b>Bob:</b><em> What about Tony? What did he do?</em><br> <b>Ken:</b><em> Jessica knows that he had a drink last night.</em> <br> <br> <br> How natural is Ken's answer to Bob's question?	29	html-slider-response	8	63929	0.0-1.0-0.7	50	NA	60ac4d1a-4891-4832-8991-d4d47198428f	2023-11-08 14:51:18 CET
6605	<b>Leo:</b><em> What about Sophia? What did she do?</em><br> <b>Chloe:</b><em> Patrick is right that she got a tattoo.</em> <br> <br> <br> How natural is Chloe's answer to Leo's question?	0	html-slider-response	9	70536	0.0-1.0-0.8	50	NA	60ac4d1a-4891-4832-8991-d4d47198428f	2023-11-08 14:51:18 CET
9378	<b>Noah:</b><em> What about Linda? Why is she pouting?</em><br> <b>Daniel:</b><em> She thinks that Danny ate the last cupcake.</em> <br> <br> <br> How natural is Daniel's answer to Noah's question?	100	html-slider-response	10	79916	0.0-1.0-0.9	50	NA	60ac4d1a-4891-4832-8991-d4d47198428f	2023-11-08 14:51:18 CET
17702	NA	{""P0_Q0"":null,""age"":""28"",""gender"":""female"",""language"":""yes"",""amE"":""yes"",""comments"":""""}	survey	11	97664	0.0-2.0	NA	[]	60ac4d1a-4891-4832-8991-d4d47198428f	2023-11-08 14:51:18 CET
18688	<h3>Instructions</h3>  <p style='text-align:left'>In this experiment, you will read conversations between two people, as in this example, where Candy asks a question, and Lenny responds:</p>  <p style='text-align:left'> <b>Candy</b>: <i>What about the house? Is it big? </i> <br> <b>Lenny</b>: <i> Cassandra suggested that it's huge. </i> </p>  <p style='text-align:left'>We ask you to rate how natural Lenny's answer to Candy's question is. You will give your response on a slider from 'totally unnatural' to 'totally natural'.</p>  <p style='text-align:left'>At the end of the experiment, we will ask you some optional demographic questions (age, gender, native language). The experiment will take about two minutes.</p>  <p style='text-align:left' font size=""1"">By clicking on the button below you agree to participate in this experiment, which is conducted by researchers at the University of Stuttgart. You may withdraw from this experiment at any time without penalty. The data collected will be anonymous and confidential. If you have any questions, you may contact the requester through Prolific's platform, or directly at st180735@stud.uni-stuttgart.de.</p>	0	html-button-response	0	18698	0.0-0.0	NA	NA	df3514d8-efa8-4da2-bd08-2b71ba207a00	2023-11-08 14:51:45 CET
9805	<b>Michael:</b><em> What about Samantha? What did she buy? </em><br> <b>Elizabeth:</b><em> Samantha, who is really into fashion, bought a new hat.</em> <br> <br> <br>How natural is Elizabeth's answer to Michael's question?	18	html-slider-response	1	28506	0.0-1.0-0.0	50	NA	df3514d8-efa8-4da2-bd08-2b71ba207a00	2023-11-08 14:51:45 CET
6331	<b>Jennifer:</b><em> What about Ann? Where did she go?</em><br> <b>Robert:</b><em> Ann, who loves travelling, went to London.</em> <br> <br> <br>How natural is Robert's answer to Jennifer's question?	22	html-slider-response	2	34839	0.0-1.0-0.1	50	NA	df3514d8-efa8-4da2-bd08-2b71ba207a00	2023-11-08 14:51:45 CET
6010	<b>Mary:</b><em> Do these muffins have blueberries in them?</em><br> <b>John:</b><em> Linda claimed that she likes drinking coffee.</em> <br> <br> <br>How natural is John's answer to Mary's question?	0	html-slider-response	3	40851	0.0-1.0-0.2	50	NA	df3514d8-efa8-4da2-bd08-2b71ba207a00	2023-11-08 14:51:45 CET
5519	<b>Daniel:</b><em> What about Linda? Why is she pouting?</em><br> <b>Jack:</b><em> She knows that Danny ate the last cupcake.</em> <br> <br> <br> How natural is Jack's answer to Daniel's question?	100	html-slider-response	4	46372	0.0-1.0-0.3	50	NA	df3514d8-efa8-4da2-bd08-2b71ba207a00	2023-11-08 14:51:45 CET
6087	<b>Ken:</b><em> What about Jackson? What did he do?</em><br> <b>Dawn:</b><em> Patricia discovered that he ran 10 miles.</em> <br> <br> <br> How natural is Dawn's answer to Ken's question?	41	html-slider-response	5	52461	0.0-1.0-0.4	50	NA	df3514d8-efa8-4da2-bd08-2b71ba207a00	2023-11-08 14:51:45 CET
5348	<b>Noah:</b><em> What about Jessica? Why is she upset?</em><br> <b>Steven:</b><em> She said that Tony had a drink last night.</em> <br> <br> <br> How natural is Steven's answer to Noah's question?	100	html-slider-response	6	57810	0.0-1.0-0.5	50	NA	df3514d8-efa8-4da2-bd08-2b71ba207a00	2023-11-08 14:51:45 CET
7087	<b>Richard:</b><em> What about John's kids? Are they in the garage?</em><br> <b>Susan:</b><em> Linda claimed that John's kids are good at math. </em> <br> <br> <br>How natural is Susan's answer to Richard's question?	0	html-slider-response	7	64898	0.0-1.0-0.6	50	NA	df3514d8-efa8-4da2-bd08-2b71ba207a00	2023-11-08 14:51:45 CET
5644	<b>Nora:</b><em> What about Mia? What did she do?</em><br> <b>Alice:</b><em> David confessed that she drank two cocktails last night.</em> <br> <br> <br> How natural is Alice's answer to Nora's question?	40	html-slider-response	8	70544	0.0-1.0-0.7	50	NA	df3514d8-efa8-4da2-bd08-2b71ba207a00	2023-11-08 14:51:45 CET
6344	<b>Charlie:</b><em> What about Patrick? Why is he angry?</em><br> <b>Chloe:</b><em> He is right that Sophia got a tattoo.</em> <br> <br> <br> How natural is Chloe's answer to Charlie's question?	0	html-slider-response	9	76890	0.0-1.0-0.8	50	NA	df3514d8-efa8-4da2-bd08-2b71ba207a00	2023-11-08 14:51:45 CET
8736	<b>Isabel:</b><em> What about Emma? What did she do?</em><br> <b>Bob:</b><em> James thinks that she studied on Saturday morning.</em> <br> <br> <br> How natural is Bob's answer to Isabel's question?	53	html-slider-response	10	85628	0.0-1.0-0.9	50	NA	df3514d8-efa8-4da2-bd08-2b71ba207a00	2023-11-08 14:51:45 CET
11042	NA	{""P0_Q0"":null,""age"":""42"",""gender"":""female"",""language"":""yes"",""amE"":""yes"",""comments"":""""}	survey	11	96755	0.0-2.0	NA	[]	df3514d8-efa8-4da2-bd08-2b71ba207a00	2023-11-08 14:51:45 CET
4881	<h3>Instructions</h3>  <p style='text-align:left'>In this experiment, you will read conversations between two people, as in this example, where Candy asks a question, and Lenny responds:</p>  <p style='text-align:left'> <b>Candy</b>: <i>What about the house? Is it big? </i> <br> <b>Lenny</b>: <i> Cassandra suggested that it's huge. </i> </p>  <p style='text-align:left'>We ask you to rate how natural Lenny's answer to Candy's question is. You will give your response on a slider from 'totally unnatural' to 'totally natural'.</p>  <p style='text-align:left'>At the end of the experiment, we will ask you some optional demographic questions (age, gender, native language). The experiment will take about two minutes.</p>  <p style='text-align:left' font size=""1"">By clicking on the button below you agree to participate in this experiment, which is conducted by researchers at the University of Stuttgart. You may withdraw from this experiment at any time without penalty. The data collected will be anonymous and confidential. If you have any questions, you may contact the requester through Prolific's platform, or directly at st180735@stud.uni-stuttgart.de.</p>	0	html-button-response	0	4892	0.0-0.0	NA	NA	c2dea90c-533e-43fa-987b-6b287cbaaa82	2023-11-08 14:51:54 CET
6468	<b>Oliver:</b><em> What about Jackson? What did he do?</em><br> <b>Chloe:</b><em> Patricia knows that he ran 10 miles.</em> <br> <br> <br> How natural is Chloe's answer to Oliver's question?	0	html-slider-response	1	11362	0.0-1.0-0.0	50	NA	c2dea90c-533e-43fa-987b-6b287cbaaa82	2023-11-08 14:51:54 CET
9193	<b>William:</b><em> What about Linda? Why is she pouting?</em><br> <b>Steven:</b><em> She discovered that Danny ate the last cupcake.</em> <br> <br> <br> How natural is Steven's answer to William's question?	28	html-slider-response	2	20558	0.0-1.0-0.1	50	NA	c2dea90c-533e-43fa-987b-6b287cbaaa82	2023-11-08 14:51:54 CET
4911	<b>Jennifer:</b><em> What about Ann? Where did she go?</em><br> <b>Robert:</b><em> Ann, who loves travelling, went to London.</em> <br> <br> <br>How natural is Robert's answer to Jennifer's question?	22	html-slider-response	3	25471	0.0-1.0-0.2	50	NA	c2dea90c-533e-43fa-987b-6b287cbaaa82	2023-11-08 14:51:54 CET
7459	<b>Mary:</b><em> Do these muffins have blueberries in them?</em><br> <b>John:</b><em> Linda claimed that she likes drinking coffee.</em> <br> <br> <br>How natural is John's answer to Mary's question?	0	html-slider-response	4	32933	0.0-1.0-0.3	50	NA	c2dea90c-533e-43fa-987b-6b287cbaaa82	2023-11-08 14:51:54 CET
6710	<b>Isabel:</b><em> What about David? Why is he smirking?</em><br> <b>Bob:</b><em> He is right that Mia drank two cocktails last night.</em> <br> <br> <br> How natural is Bob's answer to Isabel's question?	0	html-slider-response	5	39645	0.0-1.0-0.4	50	NA	c2dea90c-533e-43fa-987b-6b287cbaaa82	2023-11-08 14:51:54 CET
7046	<b>Jack:</b><em> What about James? Why is he annoyed?</em><br> <b>Charlie:</b><em> He thinks that Emma studied on Saturday morning.</em> <br> <br> <br> How natural is Charlie's answer to Jack's question?	61	html-slider-response	6	46692	0.0-1.0-0.5	50	NA	c2dea90c-533e-43fa-987b-6b287cbaaa82	2023-11-08 14:51:54 CET
4880	<b>Michael:</b><em> What about Samantha? What did she buy? </em><br> <b>Elizabeth:</b><em> Samantha, who is really into fashion, bought a new hat.</em> <br> <br> <br>How natural is Elizabeth's answer to Michael's question?	8	html-slider-response	7	51573	0.0-1.0-0.6	50	NA	c2dea90c-533e-43fa-987b-6b287cbaaa82	2023-11-08 14:51:54 CET
6180	<b>Nina:</b><em> What about Tony? What did he do?</em><br> <b>Daniel:</b><em> Jessica said that he had a drink last night.</em> <br> <br> <br> How natural is Daniel's answer to Nina's question?	100	html-slider-response	8	57755	0.0-1.0-0.7	50	NA	c2dea90c-533e-43fa-987b-6b287cbaaa82	2023-11-08 14:51:54 CET
5536	<b>Richard:</b><em> What about John's kids? Are they in the garage?</em><br> <b>Susan:</b><em> Linda claimed that John's kids are good at math. </em> <br> <br> <br>How natural is Susan's answer to Richard's question?	0	html-slider-response	9	63293	0.0-1.0-0.8	50	NA	c2dea90c-533e-43fa-987b-6b287cbaaa82	2023-11-08 14:51:54 CET
6446	<b>Vincent:</b><em> What about Sophia? What did she do?</em><br> <b>Clare:</b><em> Patrick confessed that she got a tattoo.</em> <br> <br> <br> How natural is Clare's answer to Vincent's question?	86	html-slider-response	10	69741	0.0-1.0-0.9	50	NA	c2dea90c-533e-43fa-987b-6b287cbaaa82	2023-11-08 14:51:54 CET
8927	NA	{""P0_Q0"":null,""age"":""25"",""gender"":""female"",""language"":""yes"",""amE"":""yes"",""comments"":""""}	survey	11	78778	0.0-2.0	NA	[]	c2dea90c-533e-43fa-987b-6b287cbaaa82	2023-11-08 14:51:54 CET
15682	<h3>Instructions</h3>  <p style='text-align:left'>In this experiment, you will read conversations between two people, as in this example, where Candy asks a question, and Lenny responds:</p>  <p style='text-align:left'> <b>Candy</b>: <i>What about the house? Is it big? </i> <br> <b>Lenny</b>: <i> Cassandra suggested that it's huge. </i> </p>  <p style='text-align:left'>We ask you to rate how natural Lenny's answer to Candy's question is. You will give your response on a slider from 'totally unnatural' to 'totally natural'.</p>  <p style='text-align:left'>At the end of the experiment, we will ask you some optional demographic questions (age, gender, native language). The experiment will take about two minutes.</p>  <p style='text-align:left' font size=""1"">By clicking on the button below you agree to participate in this experiment, which is conducted by researchers at the University of Stuttgart. You may withdraw from this experiment at any time without penalty. The data collected will be anonymous and confidential. If you have any questions, you may contact the requester through Prolific's platform, or directly at st180735@stud.uni-stuttgart.de.</p>	0	html-button-response	0	15693	0.0-0.0	NA	NA	16ea4fdf-00c1-4604-bcf8-9536e682c367	2023-11-08 14:52:24 CET
9758	<b>Isabel:</b><em> What about James? Why is he annoyed?</em><br> <b>Nora:</b><em> He said that Emma studied on Saturday morning.</em> <br> <br> <br> How natural is Nora's answer to Isabel's question?	100	html-slider-response	1	25454	0.0-1.0-0.0	50	NA	16ea4fdf-00c1-4604-bcf8-9536e682c367	2023-11-08 14:52:24 CET
8133	<b>Chloe:</b><em> What about Tony? What did he do?</em><br> <b>Frank:</b><em> Jessica confessed that he had a drink last night.</em> <br> <br> <br> How natural is Frank's answer to Chloe's question?	75	html-slider-response	2	33589	0.0-1.0-0.1	50	NA	16ea4fdf-00c1-4604-bcf8-9536e682c367	2023-11-08 14:52:24 CET
8422	<b>Jennifer:</b><em> What about Ann? Where did she go?</em><br> <b>Robert:</b><em> Ann, who loves travelling, went to London.</em> <br> <br> <br>How natural is Robert's answer to Jennifer's question?	0	html-slider-response	3	42012	0.0-1.0-0.2	50	NA	16ea4fdf-00c1-4604-bcf8-9536e682c367	2023-11-08 14:52:24 CET
5127	<b>Mary:</b><em> Do these muffins have blueberries in them?</em><br> <b>John:</b><em> Linda claimed that she likes drinking coffee.</em> <br> <br> <br>How natural is John's answer to Mary's question?	0	html-slider-response	4	47141	0.0-1.0-0.3	50	NA	16ea4fdf-00c1-4604-bcf8-9536e682c367	2023-11-08 14:52:24 CET
8733	<b>Richard:</b><em> What about John's kids? Are they in the garage?</em><br> <b>Susan:</b><em> Linda claimed that John's kids are good at math. </em> <br> <br> <br>How natural is Susan's answer to Richard's question?	0	html-slider-response	5	55875	0.0-1.0-0.4	50	NA	16ea4fdf-00c1-4604-bcf8-9536e682c367	2023-11-08 14:52:24 CET
7981	<b>Charlotte:</b><em> What about Jackson? What did he do?</em><br> <b>Jack:</b><em> Patricia is right that he ran 10 miles.</em> <br> <br> <br> How natural is Jack's answer to Charlotte's question?	9	html-slider-response	6	63857	0.0-1.0-0.5	50	NA	16ea4fdf-00c1-4604-bcf8-9536e682c367	2023-11-08 14:52:24 CET
8157	<b>Ken:</b><em> What about Danny? What did he do?</em><br> <b>Nina:</b><em> Linda knows that he ate the last cupcake.</em> <br> <br> <br> How natural is Nina's answer to Ken's question?	79	html-slider-response	7	72015	0.0-1.0-0.6	50	NA	16ea4fdf-00c1-4604-bcf8-9536e682c367	2023-11-08 14:52:24 CET
5945	<b>Clare:</b><em> What about Patrick? Why is he angry?</em><br> <b>Oliver:</b><em> He thinks that Sophia got a tattoo.</em> <br> <br> <br> How natural is Oliver's answer to Clare's question?	100	html-slider-response	8	77961	0.0-1.0-0.7	50	NA	16ea4fdf-00c1-4604-bcf8-9536e682c367	2023-11-08 14:52:24 CET
13195	<b>Bob:</b><em> What about David? Why is he smirking?</em><br> <b>Steven:</b><em> He discovered that Mia drank two cocktails last night.</em> <br> <br> <br> How natural is Steven's answer to Bob's question?	70	html-slider-response	9	91157	0.0-1.0-0.8	50	NA	16ea4fdf-00c1-4604-bcf8-9536e682c367	2023-11-08 14:52:24 CET
34071	<b>Michael:</b><em> What about Samantha? What did she buy? </em><br> <b>Elizabeth:</b><em> Samantha, who is really into fashion, bought a new hat.</em> <br> <br> <br>How natural is Elizabeth's answer to Michael's question?	0	html-slider-response	10	125228	0.0-1.0-0.9	50	NA	16ea4fdf-00c1-4604-bcf8-9536e682c367	2023-11-08 14:52:24 CET
34888	NA	{""P0_Q0"":null,""age"":""24"",""gender"":""female"",""language"":""yes"",""amE"":""yes"",""comments"":""""}	survey	11	160159	0.0-2.0	NA	[]	16ea4fdf-00c1-4604-bcf8-9536e682c367	2023-11-08 14:52:24 CET
14703	<h3>Instructions</h3>  <p style='text-align:left'>In this experiment, you will read conversations between two people, as in this example, where Candy asks a question, and Lenny responds:</p>  <p style='text-align:left'> <b>Candy</b>: <i>What about the house? Is it big? </i> <br> <b>Lenny</b>: <i> Cassandra suggested that it's huge. </i> </p>  <p style='text-align:left'>We ask you to rate how natural Lenny's answer to Candy's question is. You will give your response on a slider from 'totally unnatural' to 'totally natural'.</p>  <p style='text-align:left'>At the end of the experiment, we will ask you some optional demographic questions (age, gender, native language). The experiment will take about two minutes.</p>  <p style='text-align:left' font size=""1"">By clicking on the button below you agree to participate in this experiment, which is conducted by researchers at the University of Stuttgart. You may withdraw from this experiment at any time without penalty. The data collected will be anonymous and confidential. If you have any questions, you may contact the requester through Prolific's platform, or directly at st180735@stud.uni-stuttgart.de.</p>	0	html-button-response	0	14707	0.0-0.0	NA	NA	e32dfa24-96f7-4965-af04-1afafc4c827f	2023-11-08 14:52:58 CET
7998	<b>Dawn:</b><em> What about David? Why is he smirking?</em><br> <b>Nora:</b><em> He discovered that Mia drank two cocktails last night.</em> <br> <br> <br> How natural is Nora's answer to Dawn's question?	87	html-slider-response	1	22707	0.0-1.0-0.0	50	NA	e32dfa24-96f7-4965-af04-1afafc4c827f	2023-11-08 14:52:58 CET
5535	<b>Michael:</b><em> What about Samantha? What did she buy? </em><br> <b>Elizabeth:</b><em> Samantha, who is really into fashion, bought a new hat.</em> <br> <br> <br>How natural is Elizabeth's answer to Michael's question?	22	html-slider-response	2	28243	0.0-1.0-0.1	50	NA	e32dfa24-96f7-4965-af04-1afafc4c827f	2023-11-08 14:52:58 CET
9456	<b>Richard:</b><em> What about John's kids? Are they in the garage?</em><br> <b>Susan:</b><em> Linda claimed that John's kids are good at math. </em> <br> <br> <br>How natural is Susan's answer to Richard's question?	15	html-slider-response	3	37699	0.0-1.0-0.2	50	NA	e32dfa24-96f7-4965-af04-1afafc4c827f	2023-11-08 14:52:58 CET
4968	<b>Mary:</b><em> Do these muffins have blueberries in them?</em><br> <b>John:</b><em> Linda claimed that she likes drinking coffee.</em> <br> <br> <br>How natural is John's answer to Mary's question?	0	html-slider-response	4	42668	0.0-1.0-0.3	50	NA	e32dfa24-96f7-4965-af04-1afafc4c827f	2023-11-08 14:52:58 CET
6236	<b>Jack:</b><em> What about James? Why is he annoyed?</em><br> <b>Charlie:</b><em> He thinks that Emma studied on Saturday morning.</em> <br> <br> <br> How natural is Charlie's answer to Jack's question?	81	html-slider-response	5	48904	0.0-1.0-0.4	50	NA	e32dfa24-96f7-4965-af04-1afafc4c827f	2023-11-08 14:52:58 CET
5631	<b>Grace:</b><em> What about Danny? What did he do?</em><br> <b>William:</b><em> Linda knows that he ate the last cupcake.</em> <br> <br> <br> How natural is William's answer to Grace's question?	81	html-slider-response	6	54536	0.0-1.0-0.5	50	NA	e32dfa24-96f7-4965-af04-1afafc4c827f	2023-11-08 14:52:58 CET
6504	<b>Noah:</b><em> What about Tony? What did he do?</em><br> <b>Charlotte:</b><em> Jessica said that he had a drink last night.</em> <br> <br> <br> How natural is Charlotte's answer to Noah's question?	87	html-slider-response	7	61040	0.0-1.0-0.6	50	NA	e32dfa24-96f7-4965-af04-1afafc4c827f	2023-11-08 14:52:58 CET
4879	<b>Ken:</b><em> What about Patricia? Why is she proud?</em><br> <b>Chloe:</b><em> She is right that Jackson ran 10 miles.</em> <br> <br> <br> How natural is Chloe's answer to Ken's question?	95	html-slider-response	8	65920	0.0-1.0-0.7	50	NA	e32dfa24-96f7-4965-af04-1afafc4c827f	2023-11-08 14:52:58 CET
5687	<b>Frank:</b><em> What about Sophia? What did she do?</em><br> <b>Isabel:</b><em> Patrick confessed that she got a tattoo.</em> <br> <br> <br> How natural is Isabel's answer to Frank's question?	69	html-slider-response	9	71609	0.0-1.0-0.8	50	NA	e32dfa24-96f7-4965-af04-1afafc4c827f	2023-11-08 14:52:58 CET
4238	<b>Jennifer:</b><em> What about Ann? Where did she go?</em><br> <b>Robert:</b><em> Ann, who loves travelling, went to London.</em> <br> <br> <br>How natural is Robert's answer to Jennifer's question?	21	html-slider-response	10	75848	0.0-1.0-0.9	50	NA	e32dfa24-96f7-4965-af04-1afafc4c827f	2023-11-08 14:52:58 CET
10514	NA	{""P0_Q0"":null,""age"":""22"",""gender"":""female"",""language"":""yes"",""amE"":""yes"",""comments"":""""}	survey	11	86398	0.0-2.0	NA	[]	e32dfa24-96f7-4965-af04-1afafc4c827f	2023-11-08 14:52:58 CET
10687	<h3>Instructions</h3>  <p style='text-align:left'>In this experiment, you will read conversations between two people, as in this example, where Candy asks a question, and Lenny responds:</p>  <p style='text-align:left'> <b>Candy</b>: <i>What about the house? Is it big? </i> <br> <b>Lenny</b>: <i> Cassandra suggested that it's huge. </i> </p>  <p style='text-align:left'>We ask you to rate how natural Lenny's answer to Candy's question is. You will give your response on a slider from 'totally unnatural' to 'totally natural'.</p>  <p style='text-align:left'>At the end of the experiment, we will ask you some optional demographic questions (age, gender, native language). The experiment will take about two minutes.</p>  <p style='text-align:left' font size=""1"">By clicking on the button below you agree to participate in this experiment, which is conducted by researchers at the University of Stuttgart. You may withdraw from this experiment at any time without penalty. The data collected will be anonymous and confidential. If you have any questions, you may contact the requester through Prolific's platform, or directly at st180735@stud.uni-stuttgart.de.</p>	0	html-button-response	0	10698	0.0-0.0	NA	NA	a7a8f161-a18a-4a9e-9c3b-5a822828b768	2023-11-08 14:54:12 CET
5255	<b>Mary:</b><em> Do these muffins have blueberries in them?</em><br> <b>John:</b><em> Linda claimed that she likes drinking coffee.</em> <br> <br> <br>How natural is John's answer to Mary's question?	0	html-slider-response	1	15955	0.0-1.0-0.0	50	NA	a7a8f161-a18a-4a9e-9c3b-5a822828b768	2023-11-08 14:54:12 CET
5739	<b>Michael:</b><em> What about Samantha? What did she buy? </em><br> <b>Elizabeth:</b><em> Samantha, who is really into fashion, bought a new hat.</em> <br> <br> <br>How natural is Elizabeth's answer to Michael's question?	100	html-slider-response	2	21694	0.0-1.0-0.1	50	NA	a7a8f161-a18a-4a9e-9c3b-5a822828b768	2023-11-08 14:54:12 CET
8013	<b>Steven:</b><em> What about James? Why is he annoyed?</em><br> <b>Vincent:</b><em> He thinks that Emma studied on Saturday morning.</em> <br> <br> <br> How natural is Vincent's answer to Steven's question?	35	html-slider-response	3	29708	0.0-1.0-0.2	50	NA	a7a8f161-a18a-4a9e-9c3b-5a822828b768	2023-11-08 14:54:12 CET
4199	<b>Jennifer:</b><em> What about Ann? Where did she go?</em><br> <b>Robert:</b><em> Ann, who loves travelling, went to London.</em> <br> <br> <br>How natural is Robert's answer to Jennifer's question?	100	html-slider-response	4	33907	0.0-1.0-0.3	50	NA	a7a8f161-a18a-4a9e-9c3b-5a822828b768	2023-11-08 14:54:12 CET
5458	<b>Noah:</b><em> What about Jackson? What did he do?</em><br> <b>Jack:</b><em> Patricia said that he ran 10 miles.</em> <br> <br> <br> How natural is Jack's answer to Noah's question?	100	html-slider-response	5	39366	0.0-1.0-0.4	50	NA	a7a8f161-a18a-4a9e-9c3b-5a822828b768	2023-11-08 14:54:12 CET
6385	<b>Ken:</b><em> What about Linda? Why is she pouting?</em><br> <b>Oliver:</b><em> She discovered that Danny ate the last cupcake.</em> <br> <br> <br> How natural is Oliver's answer to Ken's question?	100	html-slider-response	6	45751	0.0-1.0-0.5	50	NA	a7a8f161-a18a-4a9e-9c3b-5a822828b768	2023-11-08 14:54:12 CET
6668	<b>Grace:</b><em> What about Sophia? What did she do?</em><br> <b>Nora:</b><em> Patrick is right that she got a tattoo.</em> <br> <br> <br> How natural is Nora's answer to Grace's question?	50	html-slider-response	7	52420	0.0-1.0-0.6	50	NA	a7a8f161-a18a-4a9e-9c3b-5a822828b768	2023-11-08 14:54:12 CET
5212	<b>Charlie:</b><em> What about Jessica? Why is she upset?</em><br> <b>Alice:</b><em> She knows that Tony had a drink last night.</em> <br> <br> <br> How natural is Alice's answer to Charlie's question?	100	html-slider-response	8	57634	0.0-1.0-0.7	50	NA	a7a8f161-a18a-4a9e-9c3b-5a822828b768	2023-11-08 14:54:12 CET
7773	<b>Richard:</b><em> What about John's kids? Are they in the garage?</em><br> <b>Susan:</b><em> Linda claimed that John's kids are good at math. </em> <br> <br> <br>How natural is Susan's answer to Richard's question?	0	html-slider-response	9	65407	0.0-1.0-0.8	50	NA	a7a8f161-a18a-4a9e-9c3b-5a822828b768	2023-11-08 14:54:12 CET
6765	<b>Charlotte:</b><em> What about Mia? What did she do?</em><br> <b>Nina:</b><em> David confessed that she drank two cocktails last night.</em> <br> <br> <br> How natural is Nina's answer to Charlotte's question?	86	html-slider-response	10	72174	0.0-1.0-0.9	50	NA	a7a8f161-a18a-4a9e-9c3b-5a822828b768	2023-11-08 14:54:12 CET
16825	NA	{""P0_Q0"":null,""age"":""43"",""gender"":""female"",""language"":""yes"",""amE"":""yes"",""comments"":""""}	survey	11	89038	0.0-2.0	NA	[]	a7a8f161-a18a-4a9e-9c3b-5a822828b768	2023-11-08 14:54:12 CET
18412	<h3>Instructions</h3>  <p style='text-align:left'>In this experiment, you will read conversations between two people, as in this example, where Candy asks a question, and Lenny responds:</p>  <p style='text-align:left'> <b>Candy</b>: <i>What about the house? Is it big? </i> <br> <b>Lenny</b>: <i> Cassandra suggested that it's huge. </i> </p>  <p style='text-align:left'>We ask you to rate how natural Lenny's answer to Candy's question is. You will give your response on a slider from 'totally unnatural' to 'totally natural'.</p>  <p style='text-align:left'>At the end of the experiment, we will ask you some optional demographic questions (age, gender, native language). The experiment will take about two minutes.</p>  <p style='text-align:left' font size=""1"">By clicking on the button below you agree to participate in this experiment, which is conducted by researchers at the University of Stuttgart. You may withdraw from this experiment at any time without penalty. The data collected will be anonymous and confidential. If you have any questions, you may contact the requester through Prolific's platform, or directly at st180735@stud.uni-stuttgart.de.</p>	0	html-button-response	0	18434	0.0-0.0	NA	NA	8383f75e-6502-47db-9752-96a6ec9e7568	2023-11-08 14:54:33 CET
17048	<b>Clare:</b><em> What about Sophia? What did she do?</em><br> <b>Bob:</b><em> Patrick discovered that she got a tattoo.</em> <br> <br> <br> How natural is Bob's answer to Clare's question?	100	html-slider-response	1	35489	0.0-1.0-0.0	50	NA	8383f75e-6502-47db-9752-96a6ec9e7568	2023-11-08 14:54:33 CET
36238	<b>Nina:</b><em> What about Jessica? Why is she upset?</em><br> <b>Charlotte:</b><em> She is right that Tony had a drink last night.</em> <br> <br> <br> How natural is Charlotte's answer to Nina's question?	35	html-slider-response	2	71736	0.0-1.0-0.1	50	NA	8383f75e-6502-47db-9752-96a6ec9e7568	2023-11-08 14:54:33 CET
12136	<b>Charlie:</b><em> What about Patricia? Why is she proud?</em><br> <b>Alice:</b><em> She thinks that Jackson ran 10 miles.</em> <br> <br> <br> How natural is Alice's answer to Charlie's question?	100	html-slider-response	3	83877	0.0-1.0-0.2	50	NA	8383f75e-6502-47db-9752-96a6ec9e7568	2023-11-08 14:54:33 CET
8045	<b>Mary:</b><em> Do these muffins have blueberries in them?</em><br> <b>John:</b><em> Linda claimed that she likes drinking coffee.</em> <br> <br> <br>How natural is John's answer to Mary's question?	0	html-slider-response	4	91926	0.0-1.0-0.3	50	NA	8383f75e-6502-47db-9752-96a6ec9e7568	2023-11-08 14:54:33 CET
8138	<b>Michael:</b><em> What about Samantha? What did she buy? </em><br> <b>Elizabeth:</b><em> Samantha, who is really into fashion, bought a new hat.</em> <br> <br> <br>How natural is Elizabeth's answer to Michael's question?	100	html-slider-response	5	100068	0.0-1.0-0.4	50	NA	8383f75e-6502-47db-9752-96a6ec9e7568	2023-11-08 14:54:33 CET
13512	<b>Richard:</b><em> What about John's kids? Are they in the garage?</em><br> <b>Susan:</b><em> Linda claimed that John's kids are good at math. </em> <br> <br> <br>How natural is Susan's answer to Richard's question?	92	html-slider-response	6	113584	0.0-1.0-0.5	50	NA	8383f75e-6502-47db-9752-96a6ec9e7568	2023-11-08 14:54:33 CET
15395	<b>Daniel:</b><em> What about Danny? What did he do?</em><br> <b>Jack:</b><em> Linda said that he ate the last cupcake.</em> <br> <br> <br> How natural is Jack's answer to Daniel's question?	83	html-slider-response	7	128984	0.0-1.0-0.6	50	NA	8383f75e-6502-47db-9752-96a6ec9e7568	2023-11-08 14:54:33 CET
93933	<b>Isabel:</b><em> What about David? Why is he smirking?</em><br> <b>Grace:</b><em> He confessed that Mia drank two cocktails last night.</em> <br> <br> <br> How natural is Grace's answer to Isabel's question?	69	html-slider-response	8	222922	0.0-1.0-0.7	50	NA	8383f75e-6502-47db-9752-96a6ec9e7568	2023-11-08 14:54:33 CET
7531	<b>Chloe:</b><em> What about Emma? What did she do?</em><br> <b>Frank:</b><em> James knows that she studied on Saturday morning.</em> <br> <br> <br> How natural is Frank's answer to Chloe's question?	77	html-slider-response	9	230457	0.0-1.0-0.8	50	NA	8383f75e-6502-47db-9752-96a6ec9e7568	2023-11-08 14:54:33 CET
5761	<b>Jennifer:</b><em> What about Ann? Where did she go?</em><br> <b>Robert:</b><em> Ann, who loves travelling, went to London.</em> <br> <br> <br>How natural is Robert's answer to Jennifer's question?	100	html-slider-response	10	236222	0.0-1.0-0.9	50	NA	8383f75e-6502-47db-9752-96a6ec9e7568	2023-11-08 14:54:33 CET
16803	NA	{""P0_Q0"":null,""age"":""49"",""gender"":""female"",""language"":""yes"",""amE"":""yes"",""comments"":""""}	survey	11	253185	0.0-2.0	NA	[]	8383f75e-6502-47db-9752-96a6ec9e7568	2023-11-08 14:54:33 CET
2312	<h3>Instructions</h3>  <p style='text-align:left'>In this experiment, you will read conversations between two people, as in this example, where Candy asks a question, and Lenny responds:</p>  <p style='text-align:left'> <b>Candy</b>: <i>What about the house? Is it big? </i> <br> <b>Lenny</b>: <i> Cassandra suggested that it's huge. </i> </p>  <p style='text-align:left'>We ask you to rate how natural Lenny's answer to Candy's question is. You will give your response on a slider from 'totally unnatural' to 'totally natural'.</p>  <p style='text-align:left'>At the end of the experiment, we will ask you some optional demographic questions (age, gender, native language). The experiment will take about two minutes.</p>  <p style='text-align:left' font size=""1"">By clicking on the button below you agree to participate in this experiment, which is conducted by researchers at the University of Stuttgart. You may withdraw from this experiment at any time without penalty. The data collected will be anonymous and confidential. If you have any questions, you may contact the requester through Prolific's platform, or directly at st180735@stud.uni-stuttgart.de.</p>	0	html-button-response	0	2320	0.0-0.0	NA	NA	b9817498-96fe-470d-a097-31e3e89942d7	2023-11-08 14:55:13 CET
7159	<b>Daniel:</b><em> What about Patrick? Why is he angry?</em><br> <b>Chloe:</b><em> He is right that Sophia got a tattoo.</em> <br> <br> <br> How natural is Chloe's answer to Daniel's question?	0	html-slider-response	1	9480	0.0-1.0-0.0	50	NA	b9817498-96fe-470d-a097-31e3e89942d7	2023-11-08 14:55:13 CET
9317	<b>Isabel:</b><em> What about Emma? What did she do?</em><br> <b>Charlie:</b><em> James knows that she studied on Saturday morning.</em> <br> <br> <br> How natural is Charlie's answer to Isabel's question?	85	html-slider-response	2	18798	0.0-1.0-0.1	50	NA	b9817498-96fe-470d-a097-31e3e89942d7	2023-11-08 14:55:13 CET
7966	<b>Jennifer:</b><em> What about Ann? Where did she go?</em><br> <b>Robert:</b><em> Ann, who loves travelling, went to London.</em> <br> <br> <br>How natural is Robert's answer to Jennifer's question?	95	html-slider-response	3	26764	0.0-1.0-0.2	50	NA	b9817498-96fe-470d-a097-31e3e89942d7	2023-11-08 14:55:13 CET
6109	<b>Michael:</b><em> What about Samantha? What did she buy? </em><br> <b>Elizabeth:</b><em> Samantha, who is really into fashion, bought a new hat.</em> <br> <br> <br>How natural is Elizabeth's answer to Michael's question?	95	html-slider-response	4	32874	0.0-1.0-0.3	50	NA	b9817498-96fe-470d-a097-31e3e89942d7	2023-11-08 14:55:13 CET
8723	<b>Frank:</b><em> What about Mia? What did she do?</em><br> <b>Clare:</b><em> David thinks that she drank two cocktails last night.</em> <br> <br> <br> How natural is Clare's answer to Frank's question?	100	html-slider-response	5	41598	0.0-1.0-0.4	50	NA	b9817498-96fe-470d-a097-31e3e89942d7	2023-11-08 14:55:13 CET
6615	<b>Richard:</b><em> What about John's kids? Are they in the garage?</em><br> <b>Susan:</b><em> Linda claimed that John's kids are good at math. </em> <br> <br> <br>How natural is Susan's answer to Richard's question?	0	html-slider-response	6	48214	0.0-1.0-0.5	50	NA	b9817498-96fe-470d-a097-31e3e89942d7	2023-11-08 14:55:13 CET
6122	<b>Mary:</b><em> Do these muffins have blueberries in them?</em><br> <b>John:</b><em> Linda claimed that she likes drinking coffee.</em> <br> <br> <br>How natural is John's answer to Mary's question?	0	html-slider-response	7	54337	0.0-1.0-0.6	50	NA	b9817498-96fe-470d-a097-31e3e89942d7	2023-11-08 14:55:13 CET
6814	<b>Charlotte:</b><em> What about Jessica? Why is she upset?</em><br> <b>Jack:</b><em> She confessed that Tony had a drink last night.</em> <br> <br> <br> How natural is Jack's answer to Charlotte's question?	86	html-slider-response	8	61152	0.0-1.0-0.7	50	NA	b9817498-96fe-470d-a097-31e3e89942d7	2023-11-08 14:55:13 CET
5496	<b>Bob:</b><em> What about Danny? What did he do?</em><br> <b>Nina:</b><em> Linda said that he ate the last cupcake.</em> <br> <br> <br> How natural is Nina's answer to Bob's question?	91	html-slider-response	9	66648	0.0-1.0-0.8	50	NA	b9817498-96fe-470d-a097-31e3e89942d7	2023-11-08 14:55:13 CET
5809	<b>Oliver:</b><em> What about Patricia? Why is she proud?</em><br> <b>Steven:</b><em> She discovered that Jackson ran 10 miles.</em> <br> <br> <br> How natural is Steven's answer to Oliver's question?	96	html-slider-response	10	72459	0.0-1.0-0.9	50	NA	b9817498-96fe-470d-a097-31e3e89942d7	2023-11-08 14:55:13 CET
13578	NA	{""P0_Q0"":null,""age"":""38"",""gender"":""male"",""language"":""yes"",""amE"":""yes"",""comments"":""""}	survey	11	86090	0.0-2.0	NA	[]	b9817498-96fe-470d-a097-31e3e89942d7	2023-11-08 14:55:13 CET
10999	<h3>Instructions</h3>  <p style='text-align:left'>In this experiment, you will read conversations between two people, as in this example, where Candy asks a question, and Lenny responds:</p>  <p style='text-align:left'> <b>Candy</b>: <i>What about the house? Is it big? </i> <br> <b>Lenny</b>: <i> Cassandra suggested that it's huge. </i> </p>  <p style='text-align:left'>We ask you to rate how natural Lenny's answer to Candy's question is. You will give your response on a slider from 'totally unnatural' to 'totally natural'.</p>  <p style='text-align:left'>At the end of the experiment, we will ask you some optional demographic questions (age, gender, native language). The experiment will take about two minutes.</p>  <p style='text-align:left' font size=""1"">By clicking on the button below you agree to participate in this experiment, which is conducted by researchers at the University of Stuttgart. You may withdraw from this experiment at any time without penalty. The data collected will be anonymous and confidential. If you have any questions, you may contact the requester through Prolific's platform, or directly at st180735@stud.uni-stuttgart.de.</p>	0	html-button-response	0	11007	0.0-0.0	NA	NA	c5d1efb8-272f-4a17-93e1-24071bd22b07	2023-11-08 14:57:45 CET
16794	<b>Nina:</b><em> What about Patricia? Why is she proud?</em><br> <b>Daniel:</b><em> She thinks that Jackson ran 10 miles.</em> <br> <br> <br> How natural is Daniel's answer to Nina's question?	83	html-slider-response	1	27803	0.0-1.0-0.0	50	NA	c5d1efb8-272f-4a17-93e1-24071bd22b07	2023-11-08 14:57:45 CET
13495	<b>Ken:</b><em> What about Danny? What did he do?</em><br> <b>Noah:</b><em> Linda discovered that he ate the last cupcake.</em> <br> <br> <br> How natural is Noah's answer to Ken's question?	79	html-slider-response	2	41299	0.0-1.0-0.1	50	NA	c5d1efb8-272f-4a17-93e1-24071bd22b07	2023-11-08 14:57:45 CET
12005	<b>Alice:</b><em> What about Patrick? Why is he angry?</em><br> <b>Oliver:</b><em> He is right that Sophia got a tattoo.</em> <br> <br> <br> How natural is Oliver's answer to Alice's question?	100	html-slider-response	3	53305	0.0-1.0-0.2	50	NA	c5d1efb8-272f-4a17-93e1-24071bd22b07	2023-11-08 14:57:45 CET
13135	<b>Richard:</b><em> What about John's kids? Are they in the garage?</em><br> <b>Susan:</b><em> Linda claimed that John's kids are good at math. </em> <br> <br> <br>How natural is Susan's answer to Richard's question?	12	html-slider-response	4	66442	0.0-1.0-0.3	50	NA	c5d1efb8-272f-4a17-93e1-24071bd22b07	2023-11-08 14:57:45 CET
13255	<b>Charlotte:</b><em> What about Mia? What did she do?</em><br> <b>Charlie:</b><em> David knows that she drank two cocktails last night.</em> <br> <br> <br> How natural is Charlie's answer to Charlotte's question?	100	html-slider-response	5	79698	0.0-1.0-0.4	50	NA	c5d1efb8-272f-4a17-93e1-24071bd22b07	2023-11-08 14:57:45 CET
8564	<b>Jennifer:</b><em> What about Ann? Where did she go?</em><br> <b>Robert:</b><em> Ann, who loves travelling, went to London.</em> <br> <br> <br>How natural is Robert's answer to Jennifer's question?	100	html-slider-response	6	88263	0.0-1.0-0.5	50	NA	c5d1efb8-272f-4a17-93e1-24071bd22b07	2023-11-08 14:57:45 CET
6543	<b>Mary:</b><em> Do these muffins have blueberries in them?</em><br> <b>John:</b><em> Linda claimed that she likes drinking coffee.</em> <br> <br> <br>How natural is John's answer to Mary's question?	0	html-slider-response	7	94808	0.0-1.0-0.6	50	NA	c5d1efb8-272f-4a17-93e1-24071bd22b07	2023-11-08 14:57:45 CET
10575	<b>Dawn:</b><em> What about Tony? What did he do?</em><br> <b>Chloe:</b><em> Jessica said that he had a drink last night.</em> <br> <br> <br> How natural is Chloe's answer to Dawn's question?	100	html-slider-response	8	105383	0.0-1.0-0.7	50	NA	c5d1efb8-272f-4a17-93e1-24071bd22b07	2023-11-08 14:57:45 CET
13385	<b>Frank:</b><em> What about James? Why is he annoyed?</em><br> <b>Clare:</b><em> He confessed that Emma studied on Saturday morning.</em> <br> <br> <br> How natural is Clare's answer to Frank's question?	0	html-slider-response	9	118769	0.0-1.0-0.8	50	NA	c5d1efb8-272f-4a17-93e1-24071bd22b07	2023-11-08 14:57:45 CET
8045	<b>Michael:</b><em> What about Samantha? What did she buy? </em><br> <b>Elizabeth:</b><em> Samantha, who is really into fashion, bought a new hat.</em> <br> <br> <br>How natural is Elizabeth's answer to Michael's question?	100	html-slider-response	10	126814	0.0-1.0-0.9	50	NA	c5d1efb8-272f-4a17-93e1-24071bd22b07	2023-11-08 14:57:45 CET
56253	NA	{""P0_Q0"":null,""age"":""50"",""gender"":""male"",""language"":""yes"",""amE"":""yes"",""comments"":""Is this a study for A.I. research?""}	survey	11	183118	0.0-2.0	NA	[]	c5d1efb8-272f-4a17-93e1-24071bd22b07	2023-11-08 14:57:45 CET
29508	<h3>Instructions</h3>  <p style='text-align:left'>In this experiment, you will read conversations between two people, as in this example, where Candy asks a question, and Lenny responds:</p>  <p style='text-align:left'> <b>Candy</b>: <i>What about the house? Is it big? </i> <br> <b>Lenny</b>: <i> Cassandra suggested that it's huge. </i> </p>  <p style='text-align:left'>We ask you to rate how natural Lenny's answer to Candy's question is. You will give your response on a slider from 'totally unnatural' to 'totally natural'.</p>  <p style='text-align:left'>At the end of the experiment, we will ask you some optional demographic questions (age, gender, native language). The experiment will take about two minutes.</p>  <p style='text-align:left' font size=""1"">By clicking on the button below you agree to participate in this experiment, which is conducted by researchers at the University of Stuttgart. You may withdraw from this experiment at any time without penalty. The data collected will be anonymous and confidential. If you have any questions, you may contact the requester through Prolific's platform, or directly at st180735@stud.uni-stuttgart.de.</p>	0	html-button-response	0	29576	0.0-0.0	NA	NA	c431a002-63f6-4739-864e-565ea2271fd9	2023-11-08 14:58:57 CET
64823	<b>Clare:</b><em> What about James? Why is he annoyed?</em><br> <b>Frank:</b><em> He said that Emma studied on Saturday morning.</em> <br> <br> <br> How natural is Frank's answer to Clare's question?	0	html-slider-response	1	94410	0.0-1.0-0.0	50	NA	c431a002-63f6-4739-864e-565ea2271fd9	2023-11-08 14:58:57 CET
9380	<b>Isabel:</b><em> What about Danny? What did he do?</em><br> <b>Ken:</b><em> Linda discovered that he ate the last cupcake.</em> <br> <br> <br> How natural is Ken's answer to Isabel's question?	67	html-slider-response	2	103793	0.0-1.0-0.1	50	NA	c431a002-63f6-4739-864e-565ea2271fd9	2023-11-08 14:58:57 CET
7958	<b>Mary:</b><em> Do these muffins have blueberries in them?</em><br> <b>John:</b><em> Linda claimed that she likes drinking coffee.</em> <br> <br> <br>How natural is John's answer to Mary's question?	0	html-slider-response	3	111753	0.0-1.0-0.2	50	NA	c431a002-63f6-4739-864e-565ea2271fd9	2023-11-08 14:58:57 CET
7454	<b>Nora:</b><em> What about Jackson? What did he do?</em><br> <b>Daniel:</b><em> Patricia confessed that he ran 10 miles.</em> <br> <br> <br> How natural is Daniel's answer to Nora's question?	42	html-slider-response	4	119209	0.0-1.0-0.3	50	NA	c431a002-63f6-4739-864e-565ea2271fd9	2023-11-08 14:58:57 CET
6854	<b>Vincent:</b><em> What about David? Why is he smirking?</em><br> <b>Nina:</b><em> He knows that Mia drank two cocktails last night.</em> <br> <br> <br> How natural is Nina's answer to Vincent's question?	18	html-slider-response	5	126065	0.0-1.0-0.4	50	NA	c431a002-63f6-4739-864e-565ea2271fd9	2023-11-08 14:58:57 CET
6874	<b>Jennifer:</b><em> What about Ann? Where did she go?</em><br> <b>Robert:</b><em> Ann, who loves travelling, went to London.</em> <br> <br> <br>How natural is Robert's answer to Jennifer's question?	80	html-slider-response	6	132942	0.0-1.0-0.5	50	NA	c431a002-63f6-4739-864e-565ea2271fd9	2023-11-08 14:58:57 CET
6758	<b>Richard:</b><em> What about John's kids? Are they in the garage?</em><br> <b>Susan:</b><em> Linda claimed that John's kids are good at math. </em> <br> <br> <br>How natural is Susan's answer to Richard's question?	0	html-slider-response	7	139701	0.0-1.0-0.6	50	NA	c431a002-63f6-4739-864e-565ea2271fd9	2023-11-08 14:58:57 CET
10974	<b>Chloe:</b><em> What about Tony? What did he do?</em><br> <b>Charlotte:</b><em> Jessica is right that he had a drink last night.</em> <br> <br> <br> How natural is Charlotte's answer to Chloe's question?	59	html-slider-response	8	150678	0.0-1.0-0.7	50	NA	c431a002-63f6-4739-864e-565ea2271fd9	2023-11-08 14:58:57 CET
9733	<b>Michael:</b><em> What about Samantha? What did she buy? </em><br> <b>Elizabeth:</b><em> Samantha, who is really into fashion, bought a new hat.</em> <br> <br> <br>How natural is Elizabeth's answer to Michael's question?	92	html-slider-response	9	160414	0.0-1.0-0.8	50	NA	c431a002-63f6-4739-864e-565ea2271fd9	2023-11-08 14:58:57 CET
5875	<b>Charlie:</b><em> What about Patrick? Why is he angry?</em><br> <b>Alice:</b><em> He thinks that Sophia got a tattoo.</em> <br> <br> <br> How natural is Alice's answer to Charlie's question?	94	html-slider-response	10	166290	0.0-1.0-0.9	50	NA	c431a002-63f6-4739-864e-565ea2271fd9	2023-11-08 14:58:57 CET
15114	NA	{""P0_Q0"":null,""age"":""36"",""gender"":""female"",""language"":""yes"",""amE"":""yes"",""comments"":""""}	survey	11	181496	0.0-2.0	NA	[]	c431a002-63f6-4739-864e-565ea2271fd9	2023-11-08 14:58:57 CET
16138	<h3>Instructions</h3>  <p style='text-align:left'>In this experiment, you will read conversations between two people, as in this example, where Candy asks a question, and Lenny responds:</p>  <p style='text-align:left'> <b>Candy</b>: <i>What about the house? Is it big? </i> <br> <b>Lenny</b>: <i> Cassandra suggested that it's huge. </i> </p>  <p style='text-align:left'>We ask you to rate how natural Lenny's answer to Candy's question is. You will give your response on a slider from 'totally unnatural' to 'totally natural'.</p>  <p style='text-align:left'>At the end of the experiment, we will ask you some optional demographic questions (age, gender, native language). The experiment will take about two minutes.</p>  <p style='text-align:left' font size=""1"">By clicking on the button below you agree to participate in this experiment, which is conducted by researchers at the University of Stuttgart. You may withdraw from this experiment at any time without penalty. The data collected will be anonymous and confidential. If you have any questions, you may contact the requester through Prolific's platform, or directly at st180735@stud.uni-stuttgart.de.</p>	0	html-button-response	0	16147	0.0-0.0	NA	NA	bc0c4d19-7895-43d1-9982-86206589c8e1	2023-11-08 14:59:23 CET
