rt,response,trial_type,trial_index,time_elapsed,internal_node_id,correct,stimulus,slider_start,accuracy,participant_id,ctime
16263,"{""Q0"":""Patricia""}",survey-text,0,16285,0.0-0.0-0.0,TRUE,NA,NA,NA,76848828-bf26-4e59-a008-d720c09e3c32,2024-07-19 16:26:27 CEST
2330,0,html-button-response,1,18618,0.0-0.0-3.0-0.0,NA,<p style='text-align:left'><b> Correct response! You are a human :) </b><br><br></p>,NA,NA,76848828-bf26-4e59-a008-d720c09e3c32,2024-07-19 16:26:27 CEST
10613,0,html-button-response,2,29233,0.0-1.0,NA,"<h3>Instructions</h3>  <p style='text-align:left'>In this experiment, you will read nine conversations between two speakers, as in this example, where Candy makes a statement and Lenny rejects it.</p>  <p style='text-align:left'> <b>Candy</b>: <i>Jens doesn't like hiking. </i> <br> <b>Lenny</b>: <i> No, he likes hiking. </i> </p>  <p style='text-align:left'>We ask you to rate the naturalness of the rejection. You will give your response on a slider marked 'totally natural' at one end and 'totally unnatural' at the other.</p>  <p style='text-align:left'>This experiment will take around 2 minutes, and you will be paid 40 cents.</p>  <p style='text-align:left' font size=""1"">By clicking on the button below, you agree to participate in this experiment, which is conducted by researchers at the University of Stuttgart. You may withdraw from this experiment at any time. The data collected will be anonymous and confidential. If you have any questions, you may contact the requester through Prolific's platform, or directly at st180735@stud.uni-stuttgart.de.</p>",NA,NA,76848828-bf26-4e59-a008-d720c09e3c32,2024-07-19 16:26:27 CEST
11262,43,html-slider-response,3,40497,0.0-2.0-0.0,NA,"<b>Isabel:</b><em> Tony is right that Lucy broke the plate.</em><br> <b>Leo:</b><em>  No, she didn't break the plate.</em> <br> <br> How natural is Leo's rejection of Isabel's utterance?",50,NA,76848828-bf26-4e59-a008-d720c09e3c32,2024-07-19 16:26:27 CEST
5565,67,html-slider-response,4,46066,0.0-2.0-0.1,NA,"<b>Mary:</b><em> Arthur took a French course.</em><br> <b>Lily:</b><em> No, he took a Spanish course.</em> <br> <br> How natural is Lily's rejection of Mary's utterance?",50,NA,76848828-bf26-4e59-a008-d720c09e3c32,2024-07-19 16:26:27 CEST
6561,64,html-slider-response,5,52630,0.0-2.0-0.2,NA,"<b>Vincent:</b><em> Patricia knows that Dustin lost his key.</em><br> <b>Clare:</b><em>  No, he didn't lose his key.</em> <br> <br> How natural is Clare's rejection of Vincent's utterance?",50,NA,76848828-bf26-4e59-a008-d720c09e3c32,2024-07-19 16:26:27 CEST
5931,55,html-slider-response,6,58563,0.0-2.0-0.3,NA,"<b>William:</b><em> Sophia confirmed that Jack saw the murder.</em><br> <b>Alice:</b><em>  No, he didn't see the murder.</em> <br> <br> How natural is Alice's rejection of William's utterance?",50,NA,76848828-bf26-4e59-a008-d720c09e3c32,2024-07-19 16:26:27 CEST
5997,34,html-slider-response,7,64563,0.0-2.0-0.4,NA,"<b>Oliver:</b><em> Linda confessed that Danny ate the last cupcake.</em><br> <b>Chloe:</b><em>  No, he didn't eat the last cupcake.</em> <br> <br> How natural is Chloe's rejection of Oliver's utterance?",50,NA,76848828-bf26-4e59-a008-d720c09e3c32,2024-07-19 16:26:27 CEST
5332,69,html-slider-response,8,69898,0.0-2.0-0.5,NA,"<b>Nora:</b><em> David discovered that Ann stole the money.</em><br> <b>Steven:</b><em>  No, she didn't steal the money.</em> <br> <br> How natural is Steven's rejection of Nora's utterance?",50,NA,76848828-bf26-4e59-a008-d720c09e3c32,2024-07-19 16:26:27 CEST
3539,61,html-slider-response,9,73440,0.0-2.0-0.6,NA,"<b>Ken:</b><em> The neighbor envies Greg, who bought a new car.</em><br> <b>Charlotte:</b><em>  No, he didn't buy a new car.</em> <br> <br> How natural is Charlotte's rejection of Ken's utterance?",50,NA,76848828-bf26-4e59-a008-d720c09e3c32,2024-07-19 16:26:27 CEST
4925,35,html-slider-response,10,78368,0.0-2.0-0.7,NA,"<b>Robert:</b><em> Betsy has a cat.</em><br> <b>Maximilian:</b><em> No, she doesn't like apples.</em> <br> <br> How natural is Maximilian's rejection of Robert's utterance?",50,NA,76848828-bf26-4e59-a008-d720c09e3c32,2024-07-19 16:26:27 CEST
5239,56,html-slider-response,11,83610,0.0-2.0-0.8,NA,"<b>Nina:</b><em> Raul, who cheated on his wife, feels guilty.</em><br> <b>Bob:</b><em>  No, he didn't cheat on his wife.</em> <br> <br> How natural is Bob's rejection of Nina's utterance?",50,NA,76848828-bf26-4e59-a008-d720c09e3c32,2024-07-19 16:26:27 CEST
11613,"{""P0_Q0"":null,""age"":""54"",""gender"":""female"",""language"":""yes"",""amE"":""yes"",""comments"":""""}",survey,12,95277,0.0-3.0,NA,NA,NA,[],76848828-bf26-4e59-a008-d720c09e3c32,2024-07-19 16:26:27 CEST
9856,"{""Q0"":""Mary""}",survey-text,0,9866,0.0-0.0-0.0,TRUE,NA,NA,NA,4f26c3b2-0302-49bf-a87c-4a0f49dd77ad,2024-07-19 16:30:07 CEST
1465,0,html-button-response,1,11331,0.0-0.0-3.0-0.0,NA,<p style='text-align:left'><b> Correct response! You are a human :) </b><br><br></p>,NA,NA,4f26c3b2-0302-49bf-a87c-4a0f49dd77ad,2024-07-19 16:30:07 CEST
32615,0,html-button-response,2,43947,0.0-1.0,NA,"<h3>Instructions</h3>  <p style='text-align:left'>In this experiment, you will read nine conversations between two speakers, as in this example, where Candy makes a statement and Lenny rejects it.</p>  <p style='text-align:left'> <b>Candy</b>: <i>Jens doesn't like hiking. </i> <br> <b>Lenny</b>: <i> No, he likes hiking. </i> </p>  <p style='text-align:left'>We ask you to rate the naturalness of the rejection. You will give your response on a slider marked 'totally natural' at one end and 'totally unnatural' at the other.</p>  <p style='text-align:left'>This experiment will take around 2 minutes, and you will be paid 40 cents.</p>  <p style='text-align:left' font size=""1"">By clicking on the button below, you agree to participate in this experiment, which is conducted by researchers at the University of Stuttgart. You may withdraw from this experiment at any time. The data collected will be anonymous and confidential. If you have any questions, you may contact the requester through Prolific's platform, or directly at st180735@stud.uni-stuttgart.de.</p>",NA,NA,4f26c3b2-0302-49bf-a87c-4a0f49dd77ad,2024-07-19 16:30:07 CEST
18085,74,html-slider-response,3,62033,0.0-2.0-0.0,NA,"<b>Frank:</b><em> Patricia discovered that Dustin lost his key.</em><br> <b>Leo:</b><em>  No, he didn't lose his key.</em> <br> <br> How natural is Leo's rejection of Frank's utterance?",50,NA,4f26c3b2-0302-49bf-a87c-4a0f49dd77ad,2024-07-19 16:30:07 CEST
4311,0,html-slider-response,4,66345,0.0-2.0-0.1,NA,"<b>Robert:</b><em> Betsy has a cat.</em><br> <b>Maximilian:</b><em> No, she doesn't like apples.</em> <br> <br> How natural is Maximilian's rejection of Robert's utterance?",50,NA,4f26c3b2-0302-49bf-a87c-4a0f49dd77ad,2024-07-19 16:30:07 CEST
12167,100,html-slider-response,5,78513,0.0-2.0-0.2,NA,"<b>Nora:</b><em> Jack, who saw the murder, ran away.</em><br> <b>Clare:</b><em>  No, he didn't see the murder.</em> <br> <br> How natural is Clare's rejection of Nora's utterance?",50,NA,4f26c3b2-0302-49bf-a87c-4a0f49dd77ad,2024-07-19 16:30:07 CEST
6395,82,html-slider-response,6,84909,0.0-2.0-0.3,NA,"<b>Charlie:</b><em> Mia confirmed that Greg bought a new car.</em><br> <b>Vincent:</b><em>  No, he didn't buy a new car.</em> <br> <br> How natural is Vincent's rejection of Charlie's utterance?",50,NA,4f26c3b2-0302-49bf-a87c-4a0f49dd77ad,2024-07-19 16:30:07 CEST
9000,84,html-slider-response,7,93909,0.0-2.0-0.4,NA,"<b>Grace:</b><em> Emma is right that Raul cheated on his wife.</em><br> <b>William:</b><em>  No, he didn't cheat on his wife.</em> <br> <br> How natural is William's rejection of Grace's utterance?",50,NA,4f26c3b2-0302-49bf-a87c-4a0f49dd77ad,2024-07-19 16:30:07 CEST
4992,78,html-slider-response,8,98901,0.0-2.0-0.5,NA,"<b>Mary:</b><em> Arthur took a French course.</em><br> <b>Lily:</b><em> No, he took a Spanish course.</em> <br> <br> How natural is Lily's rejection of Mary's utterance?",50,NA,4f26c3b2-0302-49bf-a87c-4a0f49dd77ad,2024-07-19 16:30:07 CEST
6647,83,html-slider-response,9,105549,0.0-2.0-0.6,NA,"<b>Steven:</b><em> Linda knows that Danny ate the last cupcake.</em><br> <b>Dawn:</b><em>  No, he didn't eat the last cupcake.</em> <br> <br> How natural is Dawn's rejection of Steven's utterance?",50,NA,4f26c3b2-0302-49bf-a87c-4a0f49dd77ad,2024-07-19 16:30:07 CEST
13201,87,html-slider-response,10,118750,0.0-2.0-0.7,NA,"<b>Nina:</b><em> Tony confessed that Lucy broke the plate.</em><br> <b>Charlotte:</b><em>  No, she didn't break the plate.</em> <br> <br> How natural is Charlotte's rejection of Nina's utterance?",50,NA,4f26c3b2-0302-49bf-a87c-4a0f49dd77ad,2024-07-19 16:30:07 CEST
8202,87,html-slider-response,11,126952,0.0-2.0-0.8,NA,"<b>Noah:</b><em> The manager reported Ann, who stole the money.</em><br> <b>Chloe:</b><em>  No, she didn't steal the money.</em> <br> <br> How natural is Chloe's rejection of Noah's utterance?",50,NA,4f26c3b2-0302-49bf-a87c-4a0f49dd77ad,2024-07-19 16:30:07 CEST
106301,"{""P0_Q0"":null,""age"":""37"",""gender"":""male"",""language"":""yes"",""amE"":""yes"",""comments"":""I couldn't figure out if I was judging on the harshness of the rejection or the naturalness of the rejection. Which are 2 different things to me. Thank you,""}",survey,12,233287,0.0-3.0,NA,NA,NA,[],4f26c3b2-0302-49bf-a87c-4a0f49dd77ad,2024-07-19 16:30:07 CEST
5460,"{""Q0"":""Mary""}",survey-text,0,5469,0.0-0.0-0.0,TRUE,NA,NA,NA,3177e5d0-0181-45a6-989f-793504a4fe38,2024-07-19 16:30:49 CEST
1525,0,html-button-response,1,6995,0.0-0.0-3.0-0.0,NA,<p style='text-align:left'><b> Correct response! You are a human :) </b><br><br></p>,NA,NA,3177e5d0-0181-45a6-989f-793504a4fe38,2024-07-19 16:30:49 CEST
1409,0,html-button-response,2,8405,0.0-1.0,NA,"<h3>Instructions</h3>  <p style='text-align:left'>In this experiment, you will read nine conversations between two speakers, as in this example, where Candy makes a statement and Lenny rejects it.</p>  <p style='text-align:left'> <b>Candy</b>: <i>Jens doesn't like hiking. </i> <br> <b>Lenny</b>: <i> No, he likes hiking. </i> </p>  <p style='text-align:left'>We ask you to rate the naturalness of the rejection. You will give your response on a slider marked 'totally natural' at one end and 'totally unnatural' at the other.</p>  <p style='text-align:left'>This experiment will take around 2 minutes, and you will be paid 40 cents.</p>  <p style='text-align:left' font size=""1"">By clicking on the button below, you agree to participate in this experiment, which is conducted by researchers at the University of Stuttgart. You may withdraw from this experiment at any time. The data collected will be anonymous and confidential. If you have any questions, you may contact the requester through Prolific's platform, or directly at st180735@stud.uni-stuttgart.de.</p>",NA,NA,3177e5d0-0181-45a6-989f-793504a4fe38,2024-07-19 16:30:49 CEST
14895,94,html-slider-response,3,23299,0.0-2.0-0.0,NA,"<b>Nora:</b><em> The neighbor envies Greg, who bought a new car.</em><br> <b>Alice:</b><em>  No, he didn't buy a new car.</em> <br> <br> How natural is Alice's rejection of Nora's utterance?",50,NA,3177e5d0-0181-45a6-989f-793504a4fe38,2024-07-19 16:30:49 CEST
6575,0,html-slider-response,4,29877,0.0-2.0-0.1,NA,"<b>Robert:</b><em> Betsy has a cat.</em><br> <b>Maximilian:</b><em> No, she doesn't like apples.</em> <br> <br> How natural is Maximilian's rejection of Robert's utterance?",50,NA,3177e5d0-0181-45a6-989f-793504a4fe38,2024-07-19 16:30:49 CEST
4319,100,html-slider-response,5,34197,0.0-2.0-0.2,NA,"<b>Mary:</b><em> Arthur took a French course.</em><br> <b>Lily:</b><em> No, he took a Spanish course.</em> <br> <br> How natural is Lily's rejection of Mary's utterance?",50,NA,3177e5d0-0181-45a6-989f-793504a4fe38,2024-07-19 16:30:49 CEST
3876,100,html-slider-response,6,38074,0.0-2.0-0.3,NA,"<b>Noah:</b><em> Tony discovered that Lucy broke the plate.</em><br> <b>Bob:</b><em>  No, she didn't break the plate.</em> <br> <br> How natural is Bob's rejection of Noah's utterance?",50,NA,3177e5d0-0181-45a6-989f-793504a4fe38,2024-07-19 16:30:49 CEST
6944,100,html-slider-response,7,45020,0.0-2.0-0.4,NA,"<b>Grace:</b><em> Danny, who ate the last cupcake, has a sweet tooth.</em><br> <b>Leo:</b><em>  No, he didn't eat the last cupcake.</em> <br> <br> How natural is Leo's rejection of Grace's utterance?",50,NA,3177e5d0-0181-45a6-989f-793504a4fe38,2024-07-19 16:30:49 CEST
5804,100,html-slider-response,8,50825,0.0-2.0-0.5,NA,"<b>Frank:</b><em> Patricia is right that Dustin lost his key.</em><br> <b>Charlie:</b><em>  No, he didn't lose his key.</em> <br> <br> How natural is Charlie's rejection of Frank's utterance?",50,NA,3177e5d0-0181-45a6-989f-793504a4fe38,2024-07-19 16:30:49 CEST
6164,100,html-slider-response,9,56989,0.0-2.0-0.6,NA,"<b>Isabel:</b><em> David confirmed that Ann stole the money.</em><br> <b>William:</b><em>  No, she didn't steal the money.</em> <br> <br> How natural is William's rejection of Isabel's utterance?",50,NA,3177e5d0-0181-45a6-989f-793504a4fe38,2024-07-19 16:30:49 CEST
3696,100,html-slider-response,10,60687,0.0-2.0-0.7,NA,"<b>Dawn:</b><em> Emma confessed that Raul cheated on his wife.</em><br> <b>Vincent:</b><em>  No, he didn't cheat on his wife.</em> <br> <br> How natural is Vincent's rejection of Dawn's utterance?",50,NA,3177e5d0-0181-45a6-989f-793504a4fe38,2024-07-19 16:30:49 CEST
3262,100,html-slider-response,11,63949,0.0-2.0-0.8,NA,"<b>Charlotte:</b><em> Sophia knows that Jack saw the murder.</em><br> <b>Nina:</b><em>  No, he didn't see the murder.</em> <br> <br> How natural is Nina's rejection of Charlotte's utterance?",50,NA,3177e5d0-0181-45a6-989f-793504a4fe38,2024-07-19 16:30:49 CEST
7141,"{""P0_Q0"":null,""age"":""19"",""gender"":""male"",""language"":""yes"",""amE"":""no"",""comments"":""""}",survey,12,71115,0.0-3.0,NA,NA,NA,[],3177e5d0-0181-45a6-989f-793504a4fe38,2024-07-19 16:30:49 CEST
21611,"{""Q0"":""Margaret""}",survey-text,0,21627,0.0-0.0-0.0,TRUE,NA,NA,NA,be6e94f9-d343-46fd-b095-1e0a9f6fe58d,2024-07-19 16:31:12 CEST
2538,0,html-button-response,1,24167,0.0-0.0-3.0-0.0,NA,<p style='text-align:left'><b> Correct response! You are a human :) </b><br><br></p>,NA,NA,be6e94f9-d343-46fd-b095-1e0a9f6fe58d,2024-07-19 16:31:12 CEST
3232,0,html-button-response,2,27400,0.0-1.0,NA,"<h3>Instructions</h3>  <p style='text-align:left'>In this experiment, you will read nine conversations between two speakers, as in this example, where Candy makes a statement and Lenny rejects it.</p>  <p style='text-align:left'> <b>Candy</b>: <i>Jens doesn't like hiking. </i> <br> <b>Lenny</b>: <i> No, he likes hiking. </i> </p>  <p style='text-align:left'>We ask you to rate the naturalness of the rejection. You will give your response on a slider marked 'totally natural' at one end and 'totally unnatural' at the other.</p>  <p style='text-align:left'>This experiment will take around 2 minutes, and you will be paid 40 cents.</p>  <p style='text-align:left' font size=""1"">By clicking on the button below, you agree to participate in this experiment, which is conducted by researchers at the University of Stuttgart. You may withdraw from this experiment at any time. The data collected will be anonymous and confidential. If you have any questions, you may contact the requester through Prolific's platform, or directly at st180735@stud.uni-stuttgart.de.</p>",NA,NA,be6e94f9-d343-46fd-b095-1e0a9f6fe58d,2024-07-19 16:31:12 CEST
17499,0,html-slider-response,3,44900,0.0-2.0-0.0,NA,"<b>Robert:</b><em> Betsy has a cat.</em><br> <b>Maximilian:</b><em> No, she doesn't like apples.</em> <br> <br> How natural is Maximilian's rejection of Robert's utterance?",50,NA,be6e94f9-d343-46fd-b095-1e0a9f6fe58d,2024-07-19 16:31:12 CEST
15823,100,html-slider-response,4,60725,0.0-2.0-0.1,NA,"<b>Chloe:</b><em> David confirmed that Ann stole the money.</em><br> <b>Charlie:</b><em>  No, she didn't steal the money.</em> <br> <br> How natural is Charlie's rejection of Chloe's utterance?",50,NA,be6e94f9-d343-46fd-b095-1e0a9f6fe58d,2024-07-19 16:31:12 CEST
13043,100,html-slider-response,5,73769,0.0-2.0-0.2,NA,"<b>Frank:</b><em> Sophia confessed that Jack saw the murder.</em><br> <b>Ken:</b><em>  No, he didn't see the murder.</em> <br> <br> How natural is Ken's rejection of Frank's utterance?",50,NA,be6e94f9-d343-46fd-b095-1e0a9f6fe58d,2024-07-19 16:31:12 CEST
10413,100,html-slider-response,6,84183,0.0-2.0-0.3,NA,"<b>Grace:</b><em> Tony knows that Lucy broke the plate.</em><br> <b>Alice:</b><em>  No, she didn't break the plate.</em> <br> <br> How natural is Alice's rejection of Grace's utterance?",50,NA,be6e94f9-d343-46fd-b095-1e0a9f6fe58d,2024-07-19 16:31:12 CEST
13203,95,html-slider-response,7,97387,0.0-2.0-0.4,NA,"<b>Mary:</b><em> Arthur took a French course.</em><br> <b>Lily:</b><em> No, he took a Spanish course.</em> <br> <br> How natural is Lily's rejection of Mary's utterance?",50,NA,be6e94f9-d343-46fd-b095-1e0a9f6fe58d,2024-07-19 16:31:12 CEST
13451,100,html-slider-response,8,110839,0.0-2.0-0.5,NA,"<b>Oliver:</b><em> Greg, who bought a new car, has a driver's license.</em><br> <b>Dawn:</b><em>  No, he didn't buy a new car.</em> <br> <br> How natural is Dawn's rejection of Oliver's utterance?",50,NA,be6e94f9-d343-46fd-b095-1e0a9f6fe58d,2024-07-19 16:31:12 CEST
10205,100,html-slider-response,9,121045,0.0-2.0-0.6,NA,"<b>Leo:</b><em> Ann criticized Raul, who cheated on his wife.</em><br> <b>Vincent:</b><em>  No, he didn't cheat on his wife.</em> <br> <br> How natural is Vincent's rejection of Leo's utterance?",50,NA,be6e94f9-d343-46fd-b095-1e0a9f6fe58d,2024-07-19 16:31:12 CEST
12621,50,html-slider-response,10,133667,0.0-2.0-0.7,NA,"<b>Steven:</b><em> Linda is right that Danny ate the last cupcake.</em><br> <b>Isabel:</b><em>  No, he didn't eat the last cupcake.</em> <br> <br> How natural is Isabel's rejection of Steven's utterance?",50,NA,be6e94f9-d343-46fd-b095-1e0a9f6fe58d,2024-07-19 16:31:12 CEST
10273,89,html-slider-response,11,143941,0.0-2.0-0.8,NA,"<b>Nina:</b><em> Patricia discovered that Dustin lost his key.</em><br> <b>Charlotte:</b><em>  No, he didn't lose his key.</em> <br> <br> How natural is Charlotte's rejection of Nina's utterance?",50,NA,be6e94f9-d343-46fd-b095-1e0a9f6fe58d,2024-07-19 16:31:12 CEST
17889,"{""P0_Q0"":null,""age"":""58"",""gender"":""female"",""language"":""yes"",""amE"":""yes"",""comments"":""""}",survey,12,161867,0.0-3.0,NA,NA,NA,[],be6e94f9-d343-46fd-b095-1e0a9f6fe58d,2024-07-19 16:31:12 CEST
9601,"{""Q0"":""Elizabeth""}",survey-text,0,9615,0.0-0.0-0.0,TRUE,NA,NA,NA,a78b436f-1fc1-4357-b945-a2141329525e,2024-07-19 16:31:20 CEST
928,0,html-button-response,1,10544,0.0-0.0-3.0-0.0,NA,<p style='text-align:left'><b> Correct response! You are a human :) </b><br><br></p>,NA,NA,a78b436f-1fc1-4357-b945-a2141329525e,2024-07-19 16:31:20 CEST
5225,0,html-button-response,2,15769,0.0-1.0,NA,"<h3>Instructions</h3>  <p style='text-align:left'>In this experiment, you will read nine conversations between two speakers, as in this example, where Candy makes a statement and Lenny rejects it.</p>  <p style='text-align:left'> <b>Candy</b>: <i>Jens doesn't like hiking. </i> <br> <b>Lenny</b>: <i> No, he likes hiking. </i> </p>  <p style='text-align:left'>We ask you to rate the naturalness of the rejection. You will give your response on a slider marked 'totally natural' at one end and 'totally unnatural' at the other.</p>  <p style='text-align:left'>This experiment will take around 2 minutes, and you will be paid 40 cents.</p>  <p style='text-align:left' font size=""1"">By clicking on the button below, you agree to participate in this experiment, which is conducted by researchers at the University of Stuttgart. You may withdraw from this experiment at any time. The data collected will be anonymous and confidential. If you have any questions, you may contact the requester through Prolific's platform, or directly at st180735@stud.uni-stuttgart.de.</p>",NA,NA,a78b436f-1fc1-4357-b945-a2141329525e,2024-07-19 16:31:20 CEST
4749,70,html-slider-response,3,20520,0.0-2.0-0.0,NA,"<b>Steven:</b><em> Emma is right that Raul cheated on his wife.</em><br> <b>Vincent:</b><em>  No, he didn't cheat on his wife.</em> <br> <br> How natural is Vincent's rejection of Steven's utterance?",50,NA,a78b436f-1fc1-4357-b945-a2141329525e,2024-07-19 16:31:20 CEST
6831,70,html-slider-response,4,27351,0.0-2.0-0.1,NA,"<b>Frank:</b><em> David knows that Ann stole the money.</em><br> <b>Chloe:</b><em>  No, she didn't steal the money.</em> <br> <br> How natural is Chloe's rejection of Frank's utterance?",50,NA,a78b436f-1fc1-4357-b945-a2141329525e,2024-07-19 16:31:20 CEST
3837,63,html-slider-response,5,31189,0.0-2.0-0.2,NA,"<b>Charlotte:</b><em> Patricia confirmed that Dustin lost his key.</em><br> <b>Isabel:</b><em>  No, he didn't lose his key.</em> <br> <br> How natural is Isabel's rejection of Charlotte's utterance?",50,NA,a78b436f-1fc1-4357-b945-a2141329525e,2024-07-19 16:31:20 CEST
5313,65,html-slider-response,6,36503,0.0-2.0-0.3,NA,"<b>Nina:</b><em> Sophia confessed that Jack saw the murder.</em><br> <b>Nora:</b><em>  No, he didn't see the murder.</em> <br> <br> How natural is Nora's rejection of Nina's utterance?",50,NA,a78b436f-1fc1-4357-b945-a2141329525e,2024-07-19 16:31:20 CEST
4527,39,html-slider-response,7,41031,0.0-2.0-0.4,NA,"<b>Leo:</b><em> Danny, who ate the last cupcake, has a sweet tooth.</em><br> <b>Noah:</b><em>  No, he didn't eat the last cupcake.</em> <br> <br> How natural is Noah's rejection of Leo's utterance?",50,NA,a78b436f-1fc1-4357-b945-a2141329525e,2024-07-19 16:31:20 CEST
2549,95,html-slider-response,8,43581,0.0-2.0-0.5,NA,"<b>Mary:</b><em> Arthur took a French course.</em><br> <b>Lily:</b><em> No, he took a Spanish course.</em> <br> <br> How natural is Lily's rejection of Mary's utterance?",50,NA,a78b436f-1fc1-4357-b945-a2141329525e,2024-07-19 16:31:20 CEST
3815,61,html-slider-response,9,47397,0.0-2.0-0.6,NA,"<b>Grace:</b><em> Mia discovered that Greg bought a new car.</em><br> <b>Clare:</b><em>  No, he didn't buy a new car.</em> <br> <br> How natural is Clare's rejection of Grace's utterance?",50,NA,a78b436f-1fc1-4357-b945-a2141329525e,2024-07-19 16:31:20 CEST
2467,0,html-slider-response,10,49866,0.0-2.0-0.7,NA,"<b>Robert:</b><em> Betsy has a cat.</em><br> <b>Maximilian:</b><em> No, she doesn't like apples.</em> <br> <br> How natural is Maximilian's rejection of Robert's utterance?",50,NA,a78b436f-1fc1-4357-b945-a2141329525e,2024-07-19 16:31:20 CEST
3339,100,html-slider-response,11,53205,0.0-2.0-0.8,NA,"<b>Dawn:</b><em> The chef scolded Lucy, who broke the plate.</em><br> <b>Charlie:</b><em>  No, she didn't break the plate.</em> <br> <br> How natural is Charlie's rejection of Dawn's utterance?",50,NA,a78b436f-1fc1-4357-b945-a2141329525e,2024-07-19 16:31:20 CEST
45603,"{""P0_Q0"":null,""age"":""27"",""gender"":""female"",""language"":""yes"",""amE"":""yes"",""comments"":""""}",survey,12,98846,0.0-3.0,NA,NA,NA,[],a78b436f-1fc1-4357-b945-a2141329525e,2024-07-19 16:31:20 CEST
7128,"{""Q0"":""Patricia""}",survey-text,0,7144,0.0-0.0-0.0,TRUE,NA,NA,NA,c370bb73-7851-4997-ba31-8869f69e5615,2024-07-19 16:34:14 CEST
1398,0,html-button-response,1,8543,0.0-0.0-3.0-0.0,NA,<p style='text-align:left'><b> Correct response! You are a human :) </b><br><br></p>,NA,NA,c370bb73-7851-4997-ba31-8869f69e5615,2024-07-19 16:34:14 CEST
9025,0,html-button-response,2,17569,0.0-1.0,NA,"<h3>Instructions</h3>  <p style='text-align:left'>In this experiment, you will read nine conversations between two speakers, as in this example, where Candy makes a statement and Lenny rejects it.</p>  <p style='text-align:left'> <b>Candy</b>: <i>Jens doesn't like hiking. </i> <br> <b>Lenny</b>: <i> No, he likes hiking. </i> </p>  <p style='text-align:left'>We ask you to rate the naturalness of the rejection. You will give your response on a slider marked 'totally natural' at one end and 'totally unnatural' at the other.</p>  <p style='text-align:left'>This experiment will take around 2 minutes, and you will be paid 40 cents.</p>  <p style='text-align:left' font size=""1"">By clicking on the button below, you agree to participate in this experiment, which is conducted by researchers at the University of Stuttgart. You may withdraw from this experiment at any time. The data collected will be anonymous and confidential. If you have any questions, you may contact the requester through Prolific's platform, or directly at st180735@stud.uni-stuttgart.de.</p>",NA,NA,c370bb73-7851-4997-ba31-8869f69e5615,2024-07-19 16:34:14 CEST
7325,90,html-slider-response,3,24894,0.0-2.0-0.0,NA,"<b>Steven:</b><em> David knows that Ann stole the money.</em><br> <b>Grace:</b><em>  No, she didn't steal the money.</em> <br> <br> How natural is Grace's rejection of Steven's utterance?",50,NA,c370bb73-7851-4997-ba31-8869f69e5615,2024-07-19 16:34:14 CEST
7726,62,html-slider-response,4,32621,0.0-2.0-0.1,NA,"<b>Nina:</b><em> Sophia is right that Jack saw the murder.</em><br> <b>Noah:</b><em>  No, he didn't see the murder.</em> <br> <br> How natural is Noah's rejection of Nina's utterance?",50,NA,c370bb73-7851-4997-ba31-8869f69e5615,2024-07-19 16:34:14 CEST
6362,0,html-slider-response,5,38985,0.0-2.0-0.2,NA,"<b>Robert:</b><em> Betsy has a cat.</em><br> <b>Maximilian:</b><em> No, she doesn't like apples.</em> <br> <br> How natural is Maximilian's rejection of Robert's utterance?",50,NA,c370bb73-7851-4997-ba31-8869f69e5615,2024-07-19 16:34:14 CEST
6398,79,html-slider-response,6,45384,0.0-2.0-0.3,NA,"<b>Leo:</b><em> Patricia confessed that Dustin lost his key.</em><br> <b>William:</b><em>  No, he didn't lose his key.</em> <br> <br> How natural is William's rejection of Leo's utterance?",50,NA,c370bb73-7851-4997-ba31-8869f69e5615,2024-07-19 16:34:14 CEST
6673,100,html-slider-response,7,52058,0.0-2.0-0.4,NA,"<b>Mary:</b><em> Arthur took a French course.</em><br> <b>Lily:</b><em> No, he took a Spanish course.</em> <br> <br> How natural is Lily's rejection of Mary's utterance?",50,NA,c370bb73-7851-4997-ba31-8869f69e5615,2024-07-19 16:34:14 CEST
3851,71,html-slider-response,8,55910,0.0-2.0-0.5,NA,"<b>Isabel:</b><em> Tony discovered that Lucy broke the plate.</em><br> <b>Dawn:</b><em>  No, she didn't break the plate.</em> <br> <br> How natural is Dawn's rejection of Isabel's utterance?",50,NA,c370bb73-7851-4997-ba31-8869f69e5615,2024-07-19 16:34:14 CEST
6743,77,html-slider-response,9,62653,0.0-2.0-0.6,NA,"<b>Charlie:</b><em> Danny, who ate the last cupcake, has a sweet tooth.</em><br> <b>Bob:</b><em>  No, he didn't eat the last cupcake.</em> <br> <br> How natural is Bob's rejection of Charlie's utterance?",50,NA,c370bb73-7851-4997-ba31-8869f69e5615,2024-07-19 16:34:14 CEST
6266,77,html-slider-response,10,68920,0.0-2.0-0.7,NA,"<b>Clare:</b><em> Ann criticized Raul, who cheated on his wife.</em><br> <b>Vincent:</b><em>  No, he didn't cheat on his wife.</em> <br> <br> How natural is Vincent's rejection of Clare's utterance?",50,NA,c370bb73-7851-4997-ba31-8869f69e5615,2024-07-19 16:34:14 CEST
4675,68,html-slider-response,11,73596,0.0-2.0-0.8,NA,"<b>Oliver:</b><em> Mia confirmed that Greg bought a new car.</em><br> <b>Chloe:</b><em>  No, he didn't buy a new car.</em> <br> <br> How natural is Chloe's rejection of Oliver's utterance?",50,NA,c370bb73-7851-4997-ba31-8869f69e5615,2024-07-19 16:34:14 CEST
7892,"{""P0_Q0"":null,""age"":""41"",""gender"":""female"",""language"":""yes"",""amE"":""yes"",""comments"":""""}",survey,12,81539,0.0-3.0,NA,NA,NA,[],c370bb73-7851-4997-ba31-8869f69e5615,2024-07-19 16:34:14 CEST
7860,"{""Q0"":""Mary""}",survey-text,0,7867,0.0-0.0-0.0,TRUE,NA,NA,NA,557a562a-5739-43b8-bfc8-621ffd7ec698,2024-07-19 16:35:41 CEST
1827,0,html-button-response,1,9695,0.0-0.0-3.0-0.0,NA,<p style='text-align:left'><b> Correct response! You are a human :) </b><br><br></p>,NA,NA,557a562a-5739-43b8-bfc8-621ffd7ec698,2024-07-19 16:35:41 CEST
11101,0,html-button-response,2,20797,0.0-1.0,NA,"<h3>Instructions</h3>  <p style='text-align:left'>In this experiment, you will read nine conversations between two speakers, as in this example, where Candy makes a statement and Lenny rejects it.</p>  <p style='text-align:left'> <b>Candy</b>: <i>Jens doesn't like hiking. </i> <br> <b>Lenny</b>: <i> No, he likes hiking. </i> </p>  <p style='text-align:left'>We ask you to rate the naturalness of the rejection. You will give your response on a slider marked 'totally natural' at one end and 'totally unnatural' at the other.</p>  <p style='text-align:left'>This experiment will take around 2 minutes, and you will be paid 40 cents.</p>  <p style='text-align:left' font size=""1"">By clicking on the button below, you agree to participate in this experiment, which is conducted by researchers at the University of Stuttgart. You may withdraw from this experiment at any time. The data collected will be anonymous and confidential. If you have any questions, you may contact the requester through Prolific's platform, or directly at st180735@stud.uni-stuttgart.de.</p>",NA,NA,557a562a-5739-43b8-bfc8-621ffd7ec698,2024-07-19 16:35:41 CEST
6920,40,html-slider-response,3,27717,0.0-2.0-0.0,NA,"<b>Bob:</b><em> Sophia confessed that Jack saw the murder.</em><br> <b>Isabel:</b><em>  No, he didn't see the murder.</em> <br> <br> How natural is Isabel's rejection of Bob's utterance?",50,NA,557a562a-5739-43b8-bfc8-621ffd7ec698,2024-07-19 16:35:41 CEST
12797,58,html-slider-response,4,40515,0.0-2.0-0.1,NA,"<b>Ken:</b><em> Tony confirmed that Lucy broke the plate.</em><br> <b>Vincent:</b><em>  No, she didn't break the plate.</em> <br> <br> How natural is Vincent's rejection of Ken's utterance?",50,NA,557a562a-5739-43b8-bfc8-621ffd7ec698,2024-07-19 16:35:41 CEST
8060,35,html-slider-response,5,48576,0.0-2.0-0.2,NA,"<b>Alice:</b><em> Ann, who stole the money, was caught by the police.</em><br> <b>Grace:</b><em>  No, she didn't steal the money.</em> <br> <br> How natural is Grace's rejection of Alice's utterance?",50,NA,557a562a-5739-43b8-bfc8-621ffd7ec698,2024-07-19 16:35:41 CEST
9831,54,html-slider-response,6,58408,0.0-2.0-0.3,NA,"<b>Noah:</b><em> Mia knows that Greg bought a new car.</em><br> <b>Oliver:</b><em>  No, he didn't buy a new car.</em> <br> <br> How natural is Oliver's rejection of Noah's utterance?",50,NA,557a562a-5739-43b8-bfc8-621ffd7ec698,2024-07-19 16:35:41 CEST
6220,34,html-slider-response,7,64629,0.0-2.0-0.4,NA,"<b>Charlotte:</b><em> The boss condemned Dustin, who lost his key.</em><br> <b>William:</b><em>  No, he didn't lose his key.</em> <br> <br> How natural is William's rejection of Charlotte's utterance?",50,NA,557a562a-5739-43b8-bfc8-621ffd7ec698,2024-07-19 16:35:41 CEST
6012,61,html-slider-response,8,70641,0.0-2.0-0.5,NA,"<b>Mary:</b><em> Arthur took a French course.</em><br> <b>Lily:</b><em> No, he took a Spanish course.</em> <br> <br> How natural is Lily's rejection of Mary's utterance?",50,NA,557a562a-5739-43b8-bfc8-621ffd7ec698,2024-07-19 16:35:41 CEST
3206,57,html-slider-response,9,73848,0.0-2.0-0.6,NA,"<b>Frank:</b><em> Linda discovered that Danny ate the last cupcake.</em><br> <b>Chloe:</b><em>  No, he didn't eat the last cupcake.</em> <br> <br> How natural is Chloe's rejection of Frank's utterance?",50,NA,557a562a-5739-43b8-bfc8-621ffd7ec698,2024-07-19 16:35:41 CEST
6389,0,html-slider-response,10,80238,0.0-2.0-0.7,NA,"<b>Robert:</b><em> Betsy has a cat.</em><br> <b>Maximilian:</b><em> No, she doesn't like apples.</em> <br> <br> How natural is Maximilian's rejection of Robert's utterance?",50,NA,557a562a-5739-43b8-bfc8-621ffd7ec698,2024-07-19 16:35:41 CEST
5746,44,html-slider-response,11,85984,0.0-2.0-0.8,NA,"<b>Nora:</b><em> Emma is right that Raul cheated on his wife.</em><br> <b>Steven:</b><em>  No, he didn't cheat on his wife.</em> <br> <br> How natural is Steven's rejection of Nora's utterance?",50,NA,557a562a-5739-43b8-bfc8-621ffd7ec698,2024-07-19 16:35:41 CEST
11701,"{""P0_Q0"":null,""age"":""31"",""gender"":""female"",""language"":""yes"",""amE"":""no"",""comments"":""""}",survey,12,97711,0.0-3.0,NA,NA,NA,[],557a562a-5739-43b8-bfc8-621ffd7ec698,2024-07-19 16:35:41 CEST
8694,"{""Q0"":""Jennifer""}",survey-text,0,8702,0.0-0.0-0.0,TRUE,NA,NA,NA,04c36363-5cac-4632-839e-9372b4319fda,2024-07-19 16:35:59 CEST
1300,0,html-button-response,1,10003,0.0-0.0-3.0-0.0,NA,<p style='text-align:left'><b> Correct response! You are a human :) </b><br><br></p>,NA,NA,04c36363-5cac-4632-839e-9372b4319fda,2024-07-19 16:35:59 CEST
10649,0,html-button-response,2,20653,0.0-1.0,NA,"<h3>Instructions</h3>  <p style='text-align:left'>In this experiment, you will read nine conversations between two speakers, as in this example, where Candy makes a statement and Lenny rejects it.</p>  <p style='text-align:left'> <b>Candy</b>: <i>Jens doesn't like hiking. </i> <br> <b>Lenny</b>: <i> No, he likes hiking. </i> </p>  <p style='text-align:left'>We ask you to rate the naturalness of the rejection. You will give your response on a slider marked 'totally natural' at one end and 'totally unnatural' at the other.</p>  <p style='text-align:left'>This experiment will take around 2 minutes, and you will be paid 40 cents.</p>  <p style='text-align:left' font size=""1"">By clicking on the button below, you agree to participate in this experiment, which is conducted by researchers at the University of Stuttgart. You may withdraw from this experiment at any time. The data collected will be anonymous and confidential. If you have any questions, you may contact the requester through Prolific's platform, or directly at st180735@stud.uni-stuttgart.de.</p>",NA,NA,04c36363-5cac-4632-839e-9372b4319fda,2024-07-19 16:35:59 CEST
8172,80,html-slider-response,3,28826,0.0-2.0-0.0,NA,"<b>Leo:</b><em> Danny, who ate the last cupcake, has a sweet tooth.</em><br> <b>Charlie:</b><em>  No, he didn't eat the last cupcake.</em> <br> <br> How natural is Charlie's rejection of Leo's utterance?",50,NA,04c36363-5cac-4632-839e-9372b4319fda,2024-07-19 16:35:59 CEST
5480,0,html-slider-response,4,34307,0.0-2.0-0.1,NA,"<b>Robert:</b><em> Betsy has a cat.</em><br> <b>Maximilian:</b><em> No, she doesn't like apples.</em> <br> <br> How natural is Maximilian's rejection of Robert's utterance?",50,NA,04c36363-5cac-4632-839e-9372b4319fda,2024-07-19 16:35:59 CEST
4523,79,html-slider-response,5,38831,0.0-2.0-0.2,NA,"<b>Charlotte:</b><em> David discovered that Ann stole the money.</em><br> <b>Frank:</b><em>  No, she didn't steal the money.</em> <br> <br> How natural is Frank's rejection of Charlotte's utterance?",50,NA,04c36363-5cac-4632-839e-9372b4319fda,2024-07-19 16:35:59 CEST
3067,100,html-slider-response,6,41899,0.0-2.0-0.3,NA,"<b>Oliver:</b><em> The neighbor envies Greg, who bought a new car.</em><br> <b>Clare:</b><em>  No, he didn't buy a new car.</em> <br> <br> How natural is Clare's rejection of Oliver's utterance?",50,NA,04c36363-5cac-4632-839e-9372b4319fda,2024-07-19 16:35:59 CEST
4086,100,html-slider-response,7,45986,0.0-2.0-0.4,NA,"<b>Nora:</b><em> Tony knows that Lucy broke the plate.</em><br> <b>Ken:</b><em>  No, she didn't break the plate.</em> <br> <br> How natural is Ken's rejection of Nora's utterance?",50,NA,04c36363-5cac-4632-839e-9372b4319fda,2024-07-19 16:35:59 CEST
3949,80,html-slider-response,8,49936,0.0-2.0-0.5,NA,"<b>Alice:</b><em> Sophia confessed that Jack saw the murder.</em><br> <b>Noah:</b><em>  No, he didn't see the murder.</em> <br> <br> How natural is Noah's rejection of Alice's utterance?",50,NA,04c36363-5cac-4632-839e-9372b4319fda,2024-07-19 16:35:59 CEST
3336,78,html-slider-response,9,53272,0.0-2.0-0.6,NA,"<b>Chloe:</b><em> Patricia is right that Dustin lost his key.</em><br> <b>Isabel:</b><em>  No, he didn't lose his key.</em> <br> <br> How natural is Isabel's rejection of Chloe's utterance?",50,NA,04c36363-5cac-4632-839e-9372b4319fda,2024-07-19 16:35:59 CEST
4712,84,html-slider-response,10,57985,0.0-2.0-0.7,NA,"<b>Vincent:</b><em> Emma confirmed that Raul cheated on his wife.</em><br> <b>William:</b><em>  No, he didn't cheat on his wife.</em> <br> <br> How natural is William's rejection of Vincent's utterance?",50,NA,04c36363-5cac-4632-839e-9372b4319fda,2024-07-19 16:35:59 CEST
3646,83,html-slider-response,11,61631,0.0-2.0-0.8,NA,"<b>Mary:</b><em> Arthur took a French course.</em><br> <b>Lily:</b><em> No, he took a Spanish course.</em> <br> <br> How natural is Lily's rejection of Mary's utterance?",50,NA,04c36363-5cac-4632-839e-9372b4319fda,2024-07-19 16:35:59 CEST
10051,"{""P0_Q0"":null,""age"":""36"",""gender"":""male"",""language"":""yes"",""amE"":""yes"",""comments"":""""}",survey,12,71710,0.0-3.0,NA,NA,NA,[],04c36363-5cac-4632-839e-9372b4319fda,2024-07-19 16:35:59 CEST
8003,"{""Q0"":""Barbara""}",survey-text,0,8029,0.0-0.0-0.0,TRUE,NA,NA,NA,18d7404f-374a-49c3-96de-779125d18592,2024-07-19 16:36:51 CEST
1296,0,html-button-response,1,9327,0.0-0.0-3.0-0.0,NA,<p style='text-align:left'><b> Correct response! You are a human :) </b><br><br></p>,NA,NA,18d7404f-374a-49c3-96de-779125d18592,2024-07-19 16:36:51 CEST
30601,0,html-button-response,2,39928,0.0-1.0,NA,"<h3>Instructions</h3>  <p style='text-align:left'>In this experiment, you will read nine conversations between two speakers, as in this example, where Candy makes a statement and Lenny rejects it.</p>  <p style='text-align:left'> <b>Candy</b>: <i>Jens doesn't like hiking. </i> <br> <b>Lenny</b>: <i> No, he likes hiking. </i> </p>  <p style='text-align:left'>We ask you to rate the naturalness of the rejection. You will give your response on a slider marked 'totally natural' at one end and 'totally unnatural' at the other.</p>  <p style='text-align:left'>This experiment will take around 2 minutes, and you will be paid 40 cents.</p>  <p style='text-align:left' font size=""1"">By clicking on the button below, you agree to participate in this experiment, which is conducted by researchers at the University of Stuttgart. You may withdraw from this experiment at any time. The data collected will be anonymous and confidential. If you have any questions, you may contact the requester through Prolific's platform, or directly at st180735@stud.uni-stuttgart.de.</p>",NA,NA,18d7404f-374a-49c3-96de-779125d18592,2024-07-19 16:36:51 CEST
15981,21,html-slider-response,3,55911,0.0-2.0-0.0,NA,"<b>Robert:</b><em> Betsy has a cat.</em><br> <b>Maximilian:</b><em> No, she doesn't like apples.</em> <br> <br> How natural is Maximilian's rejection of Robert's utterance?",50,NA,18d7404f-374a-49c3-96de-779125d18592,2024-07-19 16:36:51 CEST
15281,100,html-slider-response,4,71194,0.0-2.0-0.1,NA,"<b>Bob:</b><em> Linda is right that Danny ate the last cupcake.</em><br> <b>Charlie:</b><em>  No, he didn't eat the last cupcake.</em> <br> <br> How natural is Charlie's rejection of Bob's utterance?",50,NA,18d7404f-374a-49c3-96de-779125d18592,2024-07-19 16:36:51 CEST
10749,90,html-slider-response,5,81944,0.0-2.0-0.2,NA,"<b>Vincent:</b><em> Tony knows that Lucy broke the plate.</em><br> <b>Isabel:</b><em>  No, she didn't break the plate.</em> <br> <br> How natural is Isabel's rejection of Vincent's utterance?",50,NA,18d7404f-374a-49c3-96de-779125d18592,2024-07-19 16:36:51 CEST
10430,100,html-slider-response,6,92377,0.0-2.0-0.3,NA,"<b>Noah:</b><em> Ann, who stole the money, was caught by the police.</em><br> <b>Steven:</b><em>  No, she didn't steal the money.</em> <br> <br> How natural is Steven's rejection of Noah's utterance?",50,NA,18d7404f-374a-49c3-96de-779125d18592,2024-07-19 16:36:51 CEST
16850,88,html-slider-response,7,109228,0.0-2.0-0.4,NA,"<b>Clare:</b><em> Emma discovered that Raul cheated on his wife.</em><br> <b>Leo:</b><em>  No, he didn't cheat on his wife.</em> <br> <br> How natural is Leo's rejection of Clare's utterance?",50,NA,18d7404f-374a-49c3-96de-779125d18592,2024-07-19 16:36:51 CEST
12281,100,html-slider-response,8,121511,0.0-2.0-0.5,NA,"<b>Nina:</b><em> The boss condemned Dustin, who lost his key.</em><br> <b>Dawn:</b><em>  No, he didn't lose his key.</em> <br> <br> How natural is Dawn's rejection of Nina's utterance?",50,NA,18d7404f-374a-49c3-96de-779125d18592,2024-07-19 16:36:51 CEST
6433,100,html-slider-response,9,127945,0.0-2.0-0.6,NA,"<b>Mary:</b><em> Arthur took a French course.</em><br> <b>Lily:</b><em> No, he took a Spanish course.</em> <br> <br> How natural is Lily's rejection of Mary's utterance?",50,NA,18d7404f-374a-49c3-96de-779125d18592,2024-07-19 16:36:51 CEST
7949,100,html-slider-response,10,135895,0.0-2.0-0.7,NA,"<b>Ken:</b><em> Mia confirmed that Greg bought a new car.</em><br> <b>Frank:</b><em>  No, he didn't buy a new car.</em> <br> <br> How natural is Frank's rejection of Ken's utterance?",50,NA,18d7404f-374a-49c3-96de-779125d18592,2024-07-19 16:36:51 CEST
5481,83,html-slider-response,11,141377,0.0-2.0-0.8,NA,"<b>Chloe:</b><em> Sophia confessed that Jack saw the murder.</em><br> <b>Oliver:</b><em>  No, he didn't see the murder.</em> <br> <br> How natural is Oliver's rejection of Chloe's utterance?",50,NA,18d7404f-374a-49c3-96de-779125d18592,2024-07-19 16:36:51 CEST
129187,"{""P0_Q0"":null,""age"":""34"",""gender"":""female"",""language"":""yes"",""amE"":""yes"",""comments"":""This one was tough. I would have done better if I had first seen examples of natural rejections vs unnatural although maybe that would have defeated the purpose. There were some I felt I would have rated lower had I seen them in a different order or if I had had the option to go back and change answers. ""}",survey,12,270630,0.0-3.0,NA,NA,NA,[],18d7404f-374a-49c3-96de-779125d18592,2024-07-19 16:36:51 CEST
12514,"{""Q0"":""Jennifer""}",survey-text,0,12531,0.0-0.0-0.0,TRUE,NA,NA,NA,0b3e184e-9bd2-49cf-ae3b-83e900f77e8f,2024-07-19 16:37:04 CEST
2037,0,html-button-response,1,14569,0.0-0.0-3.0-0.0,NA,<p style='text-align:left'><b> Correct response! You are a human :) </b><br><br></p>,NA,NA,0b3e184e-9bd2-49cf-ae3b-83e900f77e8f,2024-07-19 16:37:04 CEST
20727,0,html-button-response,2,35297,0.0-1.0,NA,"<h3>Instructions</h3>  <p style='text-align:left'>In this experiment, you will read nine conversations between two speakers, as in this example, where Candy makes a statement and Lenny rejects it.</p>  <p style='text-align:left'> <b>Candy</b>: <i>Jens doesn't like hiking. </i> <br> <b>Lenny</b>: <i> No, he likes hiking. </i> </p>  <p style='text-align:left'>We ask you to rate the naturalness of the rejection. You will give your response on a slider marked 'totally natural' at one end and 'totally unnatural' at the other.</p>  <p style='text-align:left'>This experiment will take around 2 minutes, and you will be paid 40 cents.</p>  <p style='text-align:left' font size=""1"">By clicking on the button below, you agree to participate in this experiment, which is conducted by researchers at the University of Stuttgart. You may withdraw from this experiment at any time. The data collected will be anonymous and confidential. If you have any questions, you may contact the requester through Prolific's platform, or directly at st180735@stud.uni-stuttgart.de.</p>",NA,NA,0b3e184e-9bd2-49cf-ae3b-83e900f77e8f,2024-07-19 16:37:04 CEST
9462,84,html-slider-response,3,44760,0.0-2.0-0.0,NA,"<b>Clare:</b><em> Emma confirmed that Raul cheated on his wife.</em><br> <b>Chloe:</b><em>  No, he didn't cheat on his wife.</em> <br> <br> How natural is Chloe's rejection of Clare's utterance?",50,NA,0b3e184e-9bd2-49cf-ae3b-83e900f77e8f,2024-07-19 16:37:04 CEST
7486,81,html-slider-response,4,52246,0.0-2.0-0.1,NA,"<b>Noah:</b><em> Linda knows that Danny ate the last cupcake.</em><br> <b>Ken:</b><em>  No, he didn't eat the last cupcake.</em> <br> <br> How natural is Ken's rejection of Noah's utterance?",50,NA,0b3e184e-9bd2-49cf-ae3b-83e900f77e8f,2024-07-19 16:37:04 CEST
5301,0,html-slider-response,5,57549,0.0-2.0-0.2,NA,"<b>Robert:</b><em> Betsy has a cat.</em><br> <b>Maximilian:</b><em> No, she doesn't like apples.</em> <br> <br> How natural is Maximilian's rejection of Robert's utterance?",50,NA,0b3e184e-9bd2-49cf-ae3b-83e900f77e8f,2024-07-19 16:37:04 CEST
8580,92,html-slider-response,6,66129,0.0-2.0-0.3,NA,"<b>Leo:</b><em> Tony confessed that Lucy broke the plate.</em><br> <b>Bob:</b><em>  No, she didn't break the plate.</em> <br> <br> How natural is Bob's rejection of Leo's utterance?",50,NA,0b3e184e-9bd2-49cf-ae3b-83e900f77e8f,2024-07-19 16:37:04 CEST
7516,70,html-slider-response,7,73646,0.0-2.0-0.4,NA,"<b>Oliver:</b><em> Mia is right that Greg bought a new car.</em><br> <b>Isabel:</b><em>  No, he didn't buy a new car.</em> <br> <br> How natural is Isabel's rejection of Oliver's utterance?",50,NA,0b3e184e-9bd2-49cf-ae3b-83e900f77e8f,2024-07-19 16:37:04 CEST
9934,60,html-slider-response,8,83582,0.0-2.0-0.5,NA,"<b>Frank:</b><em> The police found Jack, who saw the murder.</em><br> <b>Steven:</b><em>  No, he didn't see the murder.</em> <br> <br> How natural is Steven's rejection of Frank's utterance?",50,NA,0b3e184e-9bd2-49cf-ae3b-83e900f77e8f,2024-07-19 16:37:04 CEST
8437,68,html-slider-response,9,92020,0.0-2.0-0.6,NA,"<b>Dawn:</b><em> David discovered that Ann stole the money.</em><br> <b>Vincent:</b><em>  No, she didn't steal the money.</em> <br> <br> How natural is Vincent's rejection of Dawn's utterance?",50,NA,0b3e184e-9bd2-49cf-ae3b-83e900f77e8f,2024-07-19 16:37:04 CEST
6272,84,html-slider-response,10,98293,0.0-2.0-0.7,NA,"<b>Mary:</b><em> Arthur took a French course.</em><br> <b>Lily:</b><em> No, he took a Spanish course.</em> <br> <br> How natural is Lily's rejection of Mary's utterance?",50,NA,0b3e184e-9bd2-49cf-ae3b-83e900f77e8f,2024-07-19 16:37:04 CEST
6624,37,html-slider-response,11,104918,0.0-2.0-0.8,NA,"<b>Charlotte:</b><em> Dustin, who lost his key, feels upset.</em><br> <b>Alice:</b><em>  No, he didn't lose his key.</em> <br> <br> How natural is Alice's rejection of Charlotte's utterance?",50,NA,0b3e184e-9bd2-49cf-ae3b-83e900f77e8f,2024-07-19 16:37:04 CEST
15504,"{""P0_Q0"":null,""age"":""56"",""gender"":""female"",""language"":""yes"",""amE"":""yes"",""comments"":""""}",survey,12,120478,0.0-3.0,NA,NA,NA,[],0b3e184e-9bd2-49cf-ae3b-83e900f77e8f,2024-07-19 16:37:04 CEST
6412,"{""Q0"":""Susan""}",survey-text,0,6443,0.0-0.0-0.0,TRUE,NA,NA,NA,c4533490-c438-4200-8bf5-45fb1a188529,2024-07-19 16:38:28 CEST
1441,0,html-button-response,1,7886,0.0-0.0-3.0-0.0,NA,<p style='text-align:left'><b> Correct response! You are a human :) </b><br><br></p>,NA,NA,c4533490-c438-4200-8bf5-45fb1a188529,2024-07-19 16:38:28 CEST
3384,0,html-button-response,2,11272,0.0-1.0,NA,"<h3>Instructions</h3>  <p style='text-align:left'>In this experiment, you will read nine conversations between two speakers, as in this example, where Candy makes a statement and Lenny rejects it.</p>  <p style='text-align:left'> <b>Candy</b>: <i>Jens doesn't like hiking. </i> <br> <b>Lenny</b>: <i> No, he likes hiking. </i> </p>  <p style='text-align:left'>We ask you to rate the naturalness of the rejection. You will give your response on a slider marked 'totally natural' at one end and 'totally unnatural' at the other.</p>  <p style='text-align:left'>This experiment will take around 2 minutes, and you will be paid 40 cents.</p>  <p style='text-align:left' font size=""1"">By clicking on the button below, you agree to participate in this experiment, which is conducted by researchers at the University of Stuttgart. You may withdraw from this experiment at any time. The data collected will be anonymous and confidential. If you have any questions, you may contact the requester through Prolific's platform, or directly at st180735@stud.uni-stuttgart.de.</p>",NA,NA,c4533490-c438-4200-8bf5-45fb1a188529,2024-07-19 16:38:28 CEST
7132,5,html-slider-response,3,18406,0.0-2.0-0.0,NA,"<b>Steven:</b><em> Lucy forgave Danny, who ate the last cupcake.</em><br> <b>Chloe:</b><em>  No, he didn't eat the last cupcake.</em> <br> <br> How natural is Chloe's rejection of Steven's utterance?",50,NA,c4533490-c438-4200-8bf5-45fb1a188529,2024-07-19 16:38:28 CEST
5908,85,html-slider-response,4,24316,0.0-2.0-0.1,NA,"<b>Ken:</b><em> Ann, who stole the money, was caught by the police.</em><br> <b>Nora:</b><em>  No, she didn't steal the money.</em> <br> <br> How natural is Nora's rejection of Ken's utterance?",50,NA,c4533490-c438-4200-8bf5-45fb1a188529,2024-07-19 16:38:28 CEST
4237,100,html-slider-response,5,28554,0.0-2.0-0.2,NA,"<b>Isabel:</b><em> Mia confessed that Greg bought a new car.</em><br> <b>Dawn:</b><em>  No, he didn't buy a new car.</em> <br> <br> How natural is Dawn's rejection of Isabel's utterance?",50,NA,c4533490-c438-4200-8bf5-45fb1a188529,2024-07-19 16:38:28 CEST
4387,100,html-slider-response,6,32942,0.0-2.0-0.3,NA,"<b>Mary:</b><em> Arthur took a French course.</em><br> <b>Lily:</b><em> No, he took a Spanish course.</em> <br> <br> How natural is Lily's rejection of Mary's utterance?",50,NA,c4533490-c438-4200-8bf5-45fb1a188529,2024-07-19 16:38:28 CEST
5041,79,html-slider-response,7,37984,0.0-2.0-0.4,NA,"<b>Oliver:</b><em> Patricia knows that Dustin lost his key.</em><br> <b>Nina:</b><em>  No, he didn't lose his key.</em> <br> <br> How natural is Nina's rejection of Oliver's utterance?",50,NA,c4533490-c438-4200-8bf5-45fb1a188529,2024-07-19 16:38:28 CEST
4205,87,html-slider-response,8,42190,0.0-2.0-0.5,NA,"<b>Leo:</b><em> Sophia confirmed that Jack saw the murder.</em><br> <b>Grace:</b><em>  No, he didn't see the murder.</em> <br> <br> How natural is Grace's rejection of Leo's utterance?",50,NA,c4533490-c438-4200-8bf5-45fb1a188529,2024-07-19 16:38:28 CEST
4913,94,html-slider-response,9,47105,0.0-2.0-0.6,NA,"<b>Alice:</b><em> Emma is right that Raul cheated on his wife.</em><br> <b>Vincent:</b><em>  No, he didn't cheat on his wife.</em> <br> <br> How natural is Vincent's rejection of Alice's utterance?",50,NA,c4533490-c438-4200-8bf5-45fb1a188529,2024-07-19 16:38:28 CEST
3121,0,html-slider-response,10,50226,0.0-2.0-0.7,NA,"<b>Robert:</b><em> Betsy has a cat.</em><br> <b>Maximilian:</b><em> No, she doesn't like apples.</em> <br> <br> How natural is Maximilian's rejection of Robert's utterance?",50,NA,c4533490-c438-4200-8bf5-45fb1a188529,2024-07-19 16:38:28 CEST
3923,100,html-slider-response,11,54151,0.0-2.0-0.8,NA,"<b>William:</b><em> Tony discovered that Lucy broke the plate.</em><br> <b>Clare:</b><em>  No, she didn't break the plate.</em> <br> <br> How natural is Clare's rejection of William's utterance?",50,NA,c4533490-c438-4200-8bf5-45fb1a188529,2024-07-19 16:38:28 CEST
8870,"{""P0_Q0"":null,""age"":""32"",""gender"":""female"",""language"":""yes"",""amE"":""yes"",""comments"":""""}",survey,12,63080,0.0-3.0,NA,NA,NA,[],c4533490-c438-4200-8bf5-45fb1a188529,2024-07-19 16:38:28 CEST
72512,"{""Q0"":""Elizabeth""}",survey-text,0,72524,0.0-0.0-0.0,TRUE,NA,NA,NA,39b458e8-b2fd-4048-ac33-9cc6e01f65dd,2024-07-19 16:38:48 CEST
7070,0,html-button-response,1,79595,0.0-0.0-3.0-0.0,NA,<p style='text-align:left'><b> Correct response! You are a human :) </b><br><br></p>,NA,NA,39b458e8-b2fd-4048-ac33-9cc6e01f65dd,2024-07-19 16:38:48 CEST
15627,0,html-button-response,2,95223,0.0-1.0,NA,"<h3>Instructions</h3>  <p style='text-align:left'>In this experiment, you will read nine conversations between two speakers, as in this example, where Candy makes a statement and Lenny rejects it.</p>  <p style='text-align:left'> <b>Candy</b>: <i>Jens doesn't like hiking. </i> <br> <b>Lenny</b>: <i> No, he likes hiking. </i> </p>  <p style='text-align:left'>We ask you to rate the naturalness of the rejection. You will give your response on a slider marked 'totally natural' at one end and 'totally unnatural' at the other.</p>  <p style='text-align:left'>This experiment will take around 2 minutes, and you will be paid 40 cents.</p>  <p style='text-align:left' font size=""1"">By clicking on the button below, you agree to participate in this experiment, which is conducted by researchers at the University of Stuttgart. You may withdraw from this experiment at any time. The data collected will be anonymous and confidential. If you have any questions, you may contact the requester through Prolific's platform, or directly at st180735@stud.uni-stuttgart.de.</p>",NA,NA,39b458e8-b2fd-4048-ac33-9cc6e01f65dd,2024-07-19 16:38:48 CEST
10352,100,html-slider-response,3,105577,0.0-2.0-0.0,NA,"<b>Mary:</b><em> Arthur took a French course.</em><br> <b>Lily:</b><em> No, he took a Spanish course.</em> <br> <br> How natural is Lily's rejection of Mary's utterance?",50,NA,39b458e8-b2fd-4048-ac33-9cc6e01f65dd,2024-07-19 16:38:48 CEST
8878,71,html-slider-response,4,114457,0.0-2.0-0.1,NA,"<b>Nina:</b><em> Linda knows that Danny ate the last cupcake.</em><br> <b>Frank:</b><em>  No, he didn't eat the last cupcake.</em> <br> <br> How natural is Frank's rejection of Nina's utterance?",50,NA,39b458e8-b2fd-4048-ac33-9cc6e01f65dd,2024-07-19 16:38:48 CEST
5927,31,html-slider-response,5,120385,0.0-2.0-0.2,NA,"<b>Steven:</b><em> The manager reported Ann, who stole the money.</em><br> <b>Leo:</b><em>  No, she didn't steal the money.</em> <br> <br> How natural is Leo's rejection of Steven's utterance?",50,NA,39b458e8-b2fd-4048-ac33-9cc6e01f65dd,2024-07-19 16:38:48 CEST
21973,5,html-slider-response,6,142358,0.0-2.0-0.3,NA,"<b>Noah:</b><em> Mia discovered that Greg bought a new car.</em><br> <b>Dawn:</b><em>  No, he didn't buy a new car.</em> <br> <br> How natural is Dawn's rejection of Noah's utterance?",50,NA,39b458e8-b2fd-4048-ac33-9cc6e01f65dd,2024-07-19 16:38:48 CEST
8600,79,html-slider-response,7,150958,0.0-2.0-0.4,NA,"<b>Isabel:</b><em> Emma confirmed that Raul cheated on his wife.</em><br> <b>Charlie:</b><em>  No, he didn't cheat on his wife.</em> <br> <br> How natural is Charlie's rejection of Isabel's utterance?",50,NA,39b458e8-b2fd-4048-ac33-9cc6e01f65dd,2024-07-19 16:38:48 CEST
4436,0,html-slider-response,8,155395,0.0-2.0-0.5,NA,"<b>Robert:</b><em> Betsy has a cat.</em><br> <b>Maximilian:</b><em> No, she doesn't like apples.</em> <br> <br> How natural is Maximilian's rejection of Robert's utterance?",50,NA,39b458e8-b2fd-4048-ac33-9cc6e01f65dd,2024-07-19 16:38:48 CEST
412517,78,html-slider-response,9,567913,0.0-2.0-0.6,NA,"<b>Bob:</b><em> Tony is right that Lucy broke the plate.</em><br> <b>Chloe:</b><em>  No, she didn't break the plate.</em> <br> <br> How natural is Chloe's rejection of Bob's utterance?",50,NA,39b458e8-b2fd-4048-ac33-9cc6e01f65dd,2024-07-19 16:38:48 CEST
5277,0,html-slider-response,10,573191,0.0-2.0-0.7,NA,"<b>Grace:</b><em> Dustin, who lost his key, feels upset.</em><br> <b>Clare:</b><em>  No, he didn't lose his key.</em> <br> <br> How natural is Clare's rejection of Grace's utterance?",50,NA,39b458e8-b2fd-4048-ac33-9cc6e01f65dd,2024-07-19 16:38:48 CEST
12011,23,html-slider-response,11,585202,0.0-2.0-0.8,NA,"<b>Ken:</b><em> Sophia confessed that Jack saw the murder.</em><br> <b>Vincent:</b><em>  No, he didn't see the murder.</em> <br> <br> How natural is Vincent's rejection of Ken's utterance?",50,NA,39b458e8-b2fd-4048-ac33-9cc6e01f65dd,2024-07-19 16:38:48 CEST
9316,"{""P0_Q0"":null,""age"":""28"",""gender"":""female"",""language"":""yes"",""amE"":""yes"",""comments"":""""}",survey,12,594558,0.0-3.0,NA,NA,NA,[],39b458e8-b2fd-4048-ac33-9cc6e01f65dd,2024-07-19 16:38:48 CEST
12551,"{""Q0"":""Barbara""}",survey-text,0,12568,0.0-0.0-0.0,TRUE,NA,NA,NA,ead1af18-6895-41ad-8950-6a02123d7c6b,2024-07-19 16:39:25 CEST
2053,0,html-button-response,1,14623,0.0-0.0-3.0-0.0,NA,<p style='text-align:left'><b> Correct response! You are a human :) </b><br><br></p>,NA,NA,ead1af18-6895-41ad-8950-6a02123d7c6b,2024-07-19 16:39:25 CEST
8046,0,html-button-response,2,22670,0.0-1.0,NA,"<h3>Instructions</h3>  <p style='text-align:left'>In this experiment, you will read nine conversations between two speakers, as in this example, where Candy makes a statement and Lenny rejects it.</p>  <p style='text-align:left'> <b>Candy</b>: <i>Jens doesn't like hiking. </i> <br> <b>Lenny</b>: <i> No, he likes hiking. </i> </p>  <p style='text-align:left'>We ask you to rate the naturalness of the rejection. You will give your response on a slider marked 'totally natural' at one end and 'totally unnatural' at the other.</p>  <p style='text-align:left'>This experiment will take around 2 minutes, and you will be paid 40 cents.</p>  <p style='text-align:left' font size=""1"">By clicking on the button below, you agree to participate in this experiment, which is conducted by researchers at the University of Stuttgart. You may withdraw from this experiment at any time. The data collected will be anonymous and confidential. If you have any questions, you may contact the requester through Prolific's platform, or directly at st180735@stud.uni-stuttgart.de.</p>",NA,NA,ead1af18-6895-41ad-8950-6a02123d7c6b,2024-07-19 16:39:25 CEST
11278,56,html-slider-response,3,33951,0.0-2.0-0.0,NA,"<b>Nora:</b><em> Emma knows that Raul cheated on his wife.</em><br> <b>Charlotte:</b><em>  No, he didn't cheat on his wife.</em> <br> <br> How natural is Charlotte's rejection of Nora's utterance?",50,NA,ead1af18-6895-41ad-8950-6a02123d7c6b,2024-07-19 16:39:25 CEST
12054,42,html-slider-response,4,46007,0.0-2.0-0.1,NA,"<b>Dawn:</b><em> Greg, who bought a new car, has a driver's license.</em><br> <b>Grace:</b><em>  No, he didn't buy a new car.</em> <br> <br> How natural is Grace's rejection of Dawn's utterance?",50,NA,ead1af18-6895-41ad-8950-6a02123d7c6b,2024-07-19 16:39:25 CEST
7806,44,html-slider-response,5,53814,0.0-2.0-0.2,NA,"<b>Frank:</b><em> Linda is right that Danny ate the last cupcake.</em><br> <b>Leo:</b><em>  No, he didn't eat the last cupcake.</em> <br> <br> How natural is Leo's rejection of Frank's utterance?",50,NA,ead1af18-6895-41ad-8950-6a02123d7c6b,2024-07-19 16:39:25 CEST
6286,39,html-slider-response,6,60102,0.0-2.0-0.3,NA,"<b>William:</b><em> Sophia confessed that Jack saw the murder.</em><br> <b>Alice:</b><em>  No, he didn't see the murder.</em> <br> <br> How natural is Alice's rejection of William's utterance?",50,NA,ead1af18-6895-41ad-8950-6a02123d7c6b,2024-07-19 16:39:25 CEST
5790,38,html-slider-response,7,65894,0.0-2.0-0.4,NA,"<b>Chloe:</b><em> The chef scolded Lucy, who broke the plate.</em><br> <b>Steven:</b><em>  No, she didn't break the plate.</em> <br> <br> How natural is Steven's rejection of Chloe's utterance?",50,NA,ead1af18-6895-41ad-8950-6a02123d7c6b,2024-07-19 16:39:25 CEST
5190,39,html-slider-response,8,71086,0.0-2.0-0.5,NA,"<b>Nina:</b><em> Patricia discovered that Dustin lost his key.</em><br> <b>Bob:</b><em>  No, he didn't lose his key.</em> <br> <br> How natural is Bob's rejection of Nina's utterance?",50,NA,ead1af18-6895-41ad-8950-6a02123d7c6b,2024-07-19 16:39:25 CEST
6366,40,html-slider-response,9,77454,0.0-2.0-0.6,NA,"<b>Isabel:</b><em> David confirmed that Ann stole the money.</em><br> <b>Charlie:</b><em>  No, she didn't steal the money.</em> <br> <br> How natural is Charlie's rejection of Isabel's utterance?",50,NA,ead1af18-6895-41ad-8950-6a02123d7c6b,2024-07-19 16:39:25 CEST
4926,63,html-slider-response,10,82382,0.0-2.0-0.7,NA,"<b>Mary:</b><em> Arthur took a French course.</em><br> <b>Lily:</b><em> No, he took a Spanish course.</em> <br> <br> How natural is Lily's rejection of Mary's utterance?",50,NA,ead1af18-6895-41ad-8950-6a02123d7c6b,2024-07-19 16:39:25 CEST
6855,6,html-slider-response,11,89238,0.0-2.0-0.8,NA,"<b>Robert:</b><em> Betsy has a cat.</em><br> <b>Maximilian:</b><em> No, she doesn't like apples.</em> <br> <br> How natural is Maximilian's rejection of Robert's utterance?",50,NA,ead1af18-6895-41ad-8950-6a02123d7c6b,2024-07-19 16:39:25 CEST
11993,"{""P0_Q0"":null,""age"":""66"",""gender"":""male"",""language"":""yes"",""amE"":""yes"",""comments"":""""}",survey,12,101277,0.0-3.0,NA,NA,NA,[],ead1af18-6895-41ad-8950-6a02123d7c6b,2024-07-19 16:39:25 CEST
6761,"{""Q0"":""Barbara""}",survey-text,0,6777,0.0-0.0-0.0,TRUE,NA,NA,NA,9287a1ab-b1b0-47b6-b791-a74e423144b0,2024-07-19 16:40:51 CEST
1990,0,html-button-response,1,8768,0.0-0.0-3.0-0.0,NA,<p style='text-align:left'><b> Correct response! You are a human :) </b><br><br></p>,NA,NA,9287a1ab-b1b0-47b6-b791-a74e423144b0,2024-07-19 16:40:51 CEST
14319,0,html-button-response,2,23087,0.0-1.0,NA,"<h3>Instructions</h3>  <p style='text-align:left'>In this experiment, you will read nine conversations between two speakers, as in this example, where Candy makes a statement and Lenny rejects it.</p>  <p style='text-align:left'> <b>Candy</b>: <i>Jens doesn't like hiking. </i> <br> <b>Lenny</b>: <i> No, he likes hiking. </i> </p>  <p style='text-align:left'>We ask you to rate the naturalness of the rejection. You will give your response on a slider marked 'totally natural' at one end and 'totally unnatural' at the other.</p>  <p style='text-align:left'>This experiment will take around 2 minutes, and you will be paid 40 cents.</p>  <p style='text-align:left' font size=""1"">By clicking on the button below, you agree to participate in this experiment, which is conducted by researchers at the University of Stuttgart. You may withdraw from this experiment at any time. The data collected will be anonymous and confidential. If you have any questions, you may contact the requester through Prolific's platform, or directly at st180735@stud.uni-stuttgart.de.</p>",NA,NA,9287a1ab-b1b0-47b6-b791-a74e423144b0,2024-07-19 16:40:51 CEST
7455,46,html-slider-response,3,30543,0.0-2.0-0.0,NA,"<b>Charlotte:</b><em> Linda confessed that Danny ate the last cupcake.</em><br> <b>Noah:</b><em>  No, he didn't eat the last cupcake.</em> <br> <br> How natural is Noah's rejection of Charlotte's utterance?",50,NA,9287a1ab-b1b0-47b6-b791-a74e423144b0,2024-07-19 16:40:51 CEST
11735,48,html-slider-response,4,42279,0.0-2.0-0.1,NA,"<b>Vincent:</b><em> Mia discovered that Greg bought a new car.</em><br> <b>Oliver:</b><em>  No, he didn't buy a new car.</em> <br> <br> How natural is Oliver's rejection of Vincent's utterance?",50,NA,9287a1ab-b1b0-47b6-b791-a74e423144b0,2024-07-19 16:40:51 CEST
6104,0,html-slider-response,5,48384,0.0-2.0-0.2,NA,"<b>Robert:</b><em> Betsy has a cat.</em><br> <b>Maximilian:</b><em> No, she doesn't like apples.</em> <br> <br> How natural is Maximilian's rejection of Robert's utterance?",50,NA,9287a1ab-b1b0-47b6-b791-a74e423144b0,2024-07-19 16:40:51 CEST
5455,38,html-slider-response,6,53840,0.0-2.0-0.3,NA,"<b>Bob:</b><em> Raul, who cheated on his wife, feels guilty.</em><br> <b>Alice:</b><em>  No, he didn't cheat on his wife.</em> <br> <br> How natural is Alice's rejection of Bob's utterance?",50,NA,9287a1ab-b1b0-47b6-b791-a74e423144b0,2024-07-19 16:40:51 CEST
4559,64,html-slider-response,7,58398,0.0-2.0-0.4,NA,"<b>Mary:</b><em> Arthur took a French course.</em><br> <b>Lily:</b><em> No, he took a Spanish course.</em> <br> <br> How natural is Lily's rejection of Mary's utterance?",50,NA,9287a1ab-b1b0-47b6-b791-a74e423144b0,2024-07-19 16:40:51 CEST
8014,49,html-slider-response,8,66414,0.0-2.0-0.5,NA,"<b>Chloe:</b><em> The boss condemned Dustin, who lost his key.</em><br> <b>Steven:</b><em>  No, he didn't lose his key.</em> <br> <br> How natural is Steven's rejection of Chloe's utterance?",50,NA,9287a1ab-b1b0-47b6-b791-a74e423144b0,2024-07-19 16:40:51 CEST
6391,55,html-slider-response,9,72806,0.0-2.0-0.6,NA,"<b>Clare:</b><em> David confirmed that Ann stole the money.</em><br> <b>Ken:</b><em>  No, she didn't steal the money.</em> <br> <br> How natural is Ken's rejection of Clare's utterance?",50,NA,9287a1ab-b1b0-47b6-b791-a74e423144b0,2024-07-19 16:40:51 CEST
4639,58,html-slider-response,10,77446,0.0-2.0-0.7,NA,"<b>Isabel:</b><em> Sophia is right that Jack saw the murder.</em><br> <b>William:</b><em>  No, he didn't see the murder.</em> <br> <br> How natural is William's rejection of Isabel's utterance?",50,NA,9287a1ab-b1b0-47b6-b791-a74e423144b0,2024-07-19 16:40:51 CEST
4151,56,html-slider-response,11,81598,0.0-2.0-0.8,NA,"<b>Dawn:</b><em> Tony knows that Lucy broke the plate.</em><br> <b>Nora:</b><em>  No, she didn't break the plate.</em> <br> <br> How natural is Nora's rejection of Dawn's utterance?",50,NA,9287a1ab-b1b0-47b6-b791-a74e423144b0,2024-07-19 16:40:51 CEST
9080,"{""P0_Q0"":null,""age"":""34"",""gender"":""female"",""language"":""yes"",""amE"":""yes"",""comments"":""""}",survey,12,90729,0.0-3.0,NA,NA,NA,[],9287a1ab-b1b0-47b6-b791-a74e423144b0,2024-07-19 16:40:51 CEST
7263,"{""Q0"":""Susan""}",survey-text,0,7271,0.0-0.0-0.0,TRUE,NA,NA,NA,f7af66ec-2463-4a21-b40e-528fcda8ea64,2024-07-19 16:41:10 CEST
1614,0,html-button-response,1,8886,0.0-0.0-3.0-0.0,NA,<p style='text-align:left'><b> Correct response! You are a human :) </b><br><br></p>,NA,NA,f7af66ec-2463-4a21-b40e-528fcda8ea64,2024-07-19 16:41:10 CEST
12416,0,html-button-response,2,21304,0.0-1.0,NA,"<h3>Instructions</h3>  <p style='text-align:left'>In this experiment, you will read nine conversations between two speakers, as in this example, where Candy makes a statement and Lenny rejects it.</p>  <p style='text-align:left'> <b>Candy</b>: <i>Jens doesn't like hiking. </i> <br> <b>Lenny</b>: <i> No, he likes hiking. </i> </p>  <p style='text-align:left'>We ask you to rate the naturalness of the rejection. You will give your response on a slider marked 'totally natural' at one end and 'totally unnatural' at the other.</p>  <p style='text-align:left'>This experiment will take around 2 minutes, and you will be paid 40 cents.</p>  <p style='text-align:left' font size=""1"">By clicking on the button below, you agree to participate in this experiment, which is conducted by researchers at the University of Stuttgart. You may withdraw from this experiment at any time. The data collected will be anonymous and confidential. If you have any questions, you may contact the requester through Prolific's platform, or directly at st180735@stud.uni-stuttgart.de.</p>",NA,NA,f7af66ec-2463-4a21-b40e-528fcda8ea64,2024-07-19 16:41:10 CEST
9612,58,html-slider-response,3,30919,0.0-2.0-0.0,NA,"<b>Mary:</b><em> Arthur took a French course.</em><br> <b>Lily:</b><em> No, he took a Spanish course.</em> <br> <br> How natural is Lily's rejection of Mary's utterance?",50,NA,f7af66ec-2463-4a21-b40e-528fcda8ea64,2024-07-19 16:41:10 CEST
5649,26,html-slider-response,4,36569,0.0-2.0-0.1,NA,"<b>Leo:</b><em> Dustin, who lost his key, feels upset.</em><br> <b>Frank:</b><em>  No, he didn't lose his key.</em> <br> <br> How natural is Frank's rejection of Leo's utterance?",50,NA,f7af66ec-2463-4a21-b40e-528fcda8ea64,2024-07-19 16:41:10 CEST
6882,0,html-slider-response,5,43453,0.0-2.0-0.2,NA,"<b>Robert:</b><em> Betsy has a cat.</em><br> <b>Maximilian:</b><em> No, she doesn't like apples.</em> <br> <br> How natural is Maximilian's rejection of Robert's utterance?",50,NA,f7af66ec-2463-4a21-b40e-528fcda8ea64,2024-07-19 16:41:10 CEST
4997,73,html-slider-response,6,48452,0.0-2.0-0.3,NA,"<b>Charlotte:</b><em> David is right that Ann stole the money.</em><br> <b>Charlie:</b><em>  No, she didn't steal the money.</em> <br> <br> How natural is Charlie's rejection of Charlotte's utterance?",50,NA,f7af66ec-2463-4a21-b40e-528fcda8ea64,2024-07-19 16:41:10 CEST
4566,61,html-slider-response,7,53020,0.0-2.0-0.4,NA,"<b>Clare:</b><em> The neighbor envies Greg, who bought a new car.</em><br> <b>Oliver:</b><em>  No, he didn't buy a new car.</em> <br> <br> How natural is Oliver's rejection of Clare's utterance?",50,NA,f7af66ec-2463-4a21-b40e-528fcda8ea64,2024-07-19 16:41:10 CEST
4964,35,html-slider-response,8,57985,0.0-2.0-0.5,NA,"<b>Vincent:</b><em> Sophia confessed that Jack saw the murder.</em><br> <b>William:</b><em>  No, he didn't see the murder.</em> <br> <br> How natural is William's rejection of Vincent's utterance?",50,NA,f7af66ec-2463-4a21-b40e-528fcda8ea64,2024-07-19 16:41:10 CEST
2964,73,html-slider-response,9,60952,0.0-2.0-0.6,NA,"<b>Bob:</b><em> Linda discovered that Danny ate the last cupcake.</em><br> <b>Ken:</b><em>  No, he didn't eat the last cupcake.</em> <br> <br> How natural is Ken's rejection of Bob's utterance?",50,NA,f7af66ec-2463-4a21-b40e-528fcda8ea64,2024-07-19 16:41:10 CEST
2484,90,html-slider-response,10,63437,0.0-2.0-0.7,NA,"<b>Isabel:</b><em> Tony knows that Lucy broke the plate.</em><br> <b>Steven:</b><em>  No, she didn't break the plate.</em> <br> <br> How natural is Steven's rejection of Isabel's utterance?",50,NA,f7af66ec-2463-4a21-b40e-528fcda8ea64,2024-07-19 16:41:10 CEST
2496,72,html-slider-response,11,65935,0.0-2.0-0.8,NA,"<b>Nina:</b><em> Emma confirmed that Raul cheated on his wife.</em><br> <b>Chloe:</b><em>  No, he didn't cheat on his wife.</em> <br> <br> How natural is Chloe's rejection of Nina's utterance?",50,NA,f7af66ec-2463-4a21-b40e-528fcda8ea64,2024-07-19 16:41:10 CEST
13009,"{""P0_Q0"":null,""age"":""19"",""gender"":""female"",""language"":""yes"",""amE"":""yes"",""comments"":""""}",survey,12,78994,0.0-3.0,NA,NA,NA,[],f7af66ec-2463-4a21-b40e-528fcda8ea64,2024-07-19 16:41:10 CEST
8569,"{""Q0"":""Patricia""}",survey-text,0,8588,0.0-0.0-0.0,TRUE,NA,NA,NA,46012a28-e63f-4fc9-aa44-7641ec8f7e6e,2024-07-19 16:42:44 CEST
1394,0,html-button-response,1,9985,0.0-0.0-3.0-0.0,NA,<p style='text-align:left'><b> Correct response! You are a human :) </b><br><br></p>,NA,NA,46012a28-e63f-4fc9-aa44-7641ec8f7e6e,2024-07-19 16:42:44 CEST
12610,0,html-button-response,2,22597,0.0-1.0,NA,"<h3>Instructions</h3>  <p style='text-align:left'>In this experiment, you will read nine conversations between two speakers, as in this example, where Candy makes a statement and Lenny rejects it.</p>  <p style='text-align:left'> <b>Candy</b>: <i>Jens doesn't like hiking. </i> <br> <b>Lenny</b>: <i> No, he likes hiking. </i> </p>  <p style='text-align:left'>We ask you to rate the naturalness of the rejection. You will give your response on a slider marked 'totally natural' at one end and 'totally unnatural' at the other.</p>  <p style='text-align:left'>This experiment will take around 2 minutes, and you will be paid 40 cents.</p>  <p style='text-align:left' font size=""1"">By clicking on the button below, you agree to participate in this experiment, which is conducted by researchers at the University of Stuttgart. You may withdraw from this experiment at any time. The data collected will be anonymous and confidential. If you have any questions, you may contact the requester through Prolific's platform, or directly at st180735@stud.uni-stuttgart.de.</p>",NA,NA,46012a28-e63f-4fc9-aa44-7641ec8f7e6e,2024-07-19 16:42:44 CEST
7457,100,html-slider-response,3,30056,0.0-2.0-0.0,NA,"<b>Nina:</b><em> David is right that Ann stole the money.</em><br> <b>Charlie:</b><em>  No, she didn't steal the money.</em> <br> <br> How natural is Charlie's rejection of Nina's utterance?",50,NA,46012a28-e63f-4fc9-aa44-7641ec8f7e6e,2024-07-19 16:42:44 CEST
7142,100,html-slider-response,4,37198,0.0-2.0-0.1,NA,"<b>Oliver:</b><em> Lucy forgave Danny, who ate the last cupcake.</em><br> <b>Frank:</b><em>  No, he didn't eat the last cupcake.</em> <br> <br> How natural is Frank's rejection of Oliver's utterance?",50,NA,46012a28-e63f-4fc9-aa44-7641ec8f7e6e,2024-07-19 16:42:44 CEST
4439,100,html-slider-response,5,41638,0.0-2.0-0.2,NA,"<b>Nora:</b><em> Tony discovered that Lucy broke the plate.</em><br> <b>Vincent:</b><em>  No, she didn't break the plate.</em> <br> <br> How natural is Vincent's rejection of Nora's utterance?",50,NA,46012a28-e63f-4fc9-aa44-7641ec8f7e6e,2024-07-19 16:42:44 CEST
3655,100,html-slider-response,6,45293,0.0-2.0-0.3,NA,"<b>Mary:</b><em> Arthur took a French course.</em><br> <b>Lily:</b><em> No, he took a Spanish course.</em> <br> <br> How natural is Lily's rejection of Mary's utterance?",50,NA,46012a28-e63f-4fc9-aa44-7641ec8f7e6e,2024-07-19 16:42:44 CEST
6585,88,html-slider-response,7,51879,0.0-2.0-0.4,NA,"<b>Leo:</b><em> Greg, who bought a new car, has a driver's license.</em><br> <b>Alice:</b><em>  No, he didn't buy a new car.</em> <br> <br> How natural is Alice's rejection of Leo's utterance?",50,NA,46012a28-e63f-4fc9-aa44-7641ec8f7e6e,2024-07-19 16:42:44 CEST
4079,83,html-slider-response,8,55971,0.0-2.0-0.5,NA,"<b>William:</b><em> Emma confessed that Raul cheated on his wife.</em><br> <b>Bob:</b><em>  No, he didn't cheat on his wife.</em> <br> <br> How natural is Bob's rejection of William's utterance?",50,NA,46012a28-e63f-4fc9-aa44-7641ec8f7e6e,2024-07-19 16:42:44 CEST
5361,100,html-slider-response,9,61333,0.0-2.0-0.6,NA,"<b>Dawn:</b><em> Patricia knows that Dustin lost his key.</em><br> <b>Clare:</b><em>  No, he didn't lose his key.</em> <br> <br> How natural is Clare's rejection of Dawn's utterance?",50,NA,46012a28-e63f-4fc9-aa44-7641ec8f7e6e,2024-07-19 16:42:44 CEST
9332,81,html-slider-response,10,70666,0.0-2.0-0.7,NA,"<b>Grace:</b><em> Sophia confirmed that Jack saw the murder.</em><br> <b>Steven:</b><em>  No, he didn't see the murder.</em> <br> <br> How natural is Steven's rejection of Grace's utterance?",50,NA,46012a28-e63f-4fc9-aa44-7641ec8f7e6e,2024-07-19 16:42:44 CEST
4505,0,html-slider-response,11,75172,0.0-2.0-0.8,NA,"<b>Robert:</b><em> Betsy has a cat.</em><br> <b>Maximilian:</b><em> No, she doesn't like apples.</em> <br> <br> How natural is Maximilian's rejection of Robert's utterance?",50,NA,46012a28-e63f-4fc9-aa44-7641ec8f7e6e,2024-07-19 16:42:44 CEST
10148,"{""P0_Q0"":null,""age"":""42"",""gender"":""female"",""language"":""yes"",""amE"":""yes"",""comments"":""""}",survey,12,85382,0.0-3.0,NA,NA,NA,[],46012a28-e63f-4fc9-aa44-7641ec8f7e6e,2024-07-19 16:42:44 CEST
10268,"{""Q0"":""Linda""}",survey-text,0,10300,0.0-0.0-0.0,TRUE,NA,NA,NA,959bead5-4dd6-433b-ba5e-b394ebbd6e67,2024-07-19 16:44:09 CEST
1454,0,html-button-response,1,11757,0.0-0.0-3.0-0.0,NA,<p style='text-align:left'><b> Correct response! You are a human :) </b><br><br></p>,NA,NA,959bead5-4dd6-433b-ba5e-b394ebbd6e67,2024-07-19 16:44:09 CEST
12491,0,html-button-response,2,24252,0.0-1.0,NA,"<h3>Instructions</h3>  <p style='text-align:left'>In this experiment, you will read nine conversations between two speakers, as in this example, where Candy makes a statement and Lenny rejects it.</p>  <p style='text-align:left'> <b>Candy</b>: <i>Jens doesn't like hiking. </i> <br> <b>Lenny</b>: <i> No, he likes hiking. </i> </p>  <p style='text-align:left'>We ask you to rate the naturalness of the rejection. You will give your response on a slider marked 'totally natural' at one end and 'totally unnatural' at the other.</p>  <p style='text-align:left'>This experiment will take around 2 minutes, and you will be paid 40 cents.</p>  <p style='text-align:left' font size=""1"">By clicking on the button below, you agree to participate in this experiment, which is conducted by researchers at the University of Stuttgart. You may withdraw from this experiment at any time. The data collected will be anonymous and confidential. If you have any questions, you may contact the requester through Prolific's platform, or directly at st180735@stud.uni-stuttgart.de.</p>",NA,NA,959bead5-4dd6-433b-ba5e-b394ebbd6e67,2024-07-19 16:44:09 CEST
12380,22,html-slider-response,3,36636,0.0-2.0-0.0,NA,"<b>Frank:</b><em> Ann criticized Raul, who cheated on his wife.</em><br> <b>Alice:</b><em>  No, he didn't cheat on his wife.</em> <br> <br> How natural is Alice's rejection of Frank's utterance?",50,NA,959bead5-4dd6-433b-ba5e-b394ebbd6e67,2024-07-19 16:44:09 CEST
9875,73,html-slider-response,4,46515,0.0-2.0-0.1,NA,"<b>Oliver:</b><em> David knows that Ann stole the money.</em><br> <b>Grace:</b><em>  No, she didn't steal the money.</em> <br> <br> How natural is Grace's rejection of Oliver's utterance?",50,NA,959bead5-4dd6-433b-ba5e-b394ebbd6e67,2024-07-19 16:44:09 CEST
5348,100,html-slider-response,5,51867,0.0-2.0-0.2,NA,"<b>Mary:</b><em> Arthur took a French course.</em><br> <b>Lily:</b><em> No, he took a Spanish course.</em> <br> <br> How natural is Lily's rejection of Mary's utterance?",50,NA,959bead5-4dd6-433b-ba5e-b394ebbd6e67,2024-07-19 16:44:09 CEST
4965,94,html-slider-response,6,56843,0.0-2.0-0.3,NA,"<b>Chloe:</b><em> Linda is right that Danny ate the last cupcake.</em><br> <b>Charlie:</b><em>  No, he didn't eat the last cupcake.</em> <br> <br> How natural is Charlie's rejection of Chloe's utterance?",50,NA,959bead5-4dd6-433b-ba5e-b394ebbd6e67,2024-07-19 16:44:09 CEST
8724,77,html-slider-response,7,65571,0.0-2.0-0.4,NA,"<b>Nina:</b><em> Sophia confessed that Jack saw the murder.</em><br> <b>Isabel:</b><em>  No, he didn't see the murder.</em> <br> <br> How natural is Isabel's rejection of Nina's utterance?",50,NA,959bead5-4dd6-433b-ba5e-b394ebbd6e67,2024-07-19 16:44:09 CEST
9501,32,html-slider-response,8,75075,0.0-2.0-0.5,NA,"<b>William:</b><em> Tony confirmed that Lucy broke the plate.</em><br> <b>Ken:</b><em>  No, she didn't break the plate.</em> <br> <br> How natural is Ken's rejection of William's utterance?",50,NA,959bead5-4dd6-433b-ba5e-b394ebbd6e67,2024-07-19 16:44:09 CEST
5532,0,html-slider-response,9,80611,0.0-2.0-0.6,NA,"<b>Robert:</b><em> Betsy has a cat.</em><br> <b>Maximilian:</b><em> No, she doesn't like apples.</em> <br> <br> How natural is Maximilian's rejection of Robert's utterance?",50,NA,959bead5-4dd6-433b-ba5e-b394ebbd6e67,2024-07-19 16:44:09 CEST
5989,26,html-slider-response,10,86603,0.0-2.0-0.7,NA,"<b>Vincent:</b><em> Mia discovered that Greg bought a new car.</em><br> <b>Nora:</b><em>  No, he didn't buy a new car.</em> <br> <br> How natural is Nora's rejection of Vincent's utterance?",50,NA,959bead5-4dd6-433b-ba5e-b394ebbd6e67,2024-07-19 16:44:09 CEST
6997,10,html-slider-response,11,93603,0.0-2.0-0.8,NA,"<b>Charlotte:</b><em> Dustin, who lost his key, feels upset.</em><br> <b>Bob:</b><em>  No, he didn't lose his key.</em> <br> <br> How natural is Bob's rejection of Charlotte's utterance?",50,NA,959bead5-4dd6-433b-ba5e-b394ebbd6e67,2024-07-19 16:44:09 CEST
23066,"{""P0_Q0"":null,""age"":""50"",""gender"":""male"",""language"":""yes"",""amE"":""yes"",""comments"":""Thank you.""}",survey,12,116790,0.0-3.0,NA,NA,NA,[],959bead5-4dd6-433b-ba5e-b394ebbd6e67,2024-07-19 16:44:09 CEST
12623,"{""Q0"":""Linda""}",survey-text,0,12648,0.0-0.0-0.0,TRUE,NA,NA,NA,6e8f197c-0147-4573-ad62-16a0094e4a0c,2024-07-19 16:44:51 CEST
1803,0,html-button-response,1,14455,0.0-0.0-3.0-0.0,NA,<p style='text-align:left'><b> Correct response! You are a human :) </b><br><br></p>,NA,NA,6e8f197c-0147-4573-ad62-16a0094e4a0c,2024-07-19 16:44:51 CEST
11275,0,html-button-response,2,25732,0.0-1.0,NA,"<h3>Instructions</h3>  <p style='text-align:left'>In this experiment, you will read nine conversations between two speakers, as in this example, where Candy makes a statement and Lenny rejects it.</p>  <p style='text-align:left'> <b>Candy</b>: <i>Jens doesn't like hiking. </i> <br> <b>Lenny</b>: <i> No, he likes hiking. </i> </p>  <p style='text-align:left'>We ask you to rate the naturalness of the rejection. You will give your response on a slider marked 'totally natural' at one end and 'totally unnatural' at the other.</p>  <p style='text-align:left'>This experiment will take around 2 minutes, and you will be paid 40 cents.</p>  <p style='text-align:left' font size=""1"">By clicking on the button below, you agree to participate in this experiment, which is conducted by researchers at the University of Stuttgart. You may withdraw from this experiment at any time. The data collected will be anonymous and confidential. If you have any questions, you may contact the requester through Prolific's platform, or directly at st180735@stud.uni-stuttgart.de.</p>",NA,NA,6e8f197c-0147-4573-ad62-16a0094e4a0c,2024-07-19 16:44:51 CEST
10407,82,html-slider-response,3,36147,0.0-2.0-0.0,NA,"<b>Charlotte:</b><em> David discovered that Ann stole the money.</em><br> <b>Noah:</b><em>  No, she didn't steal the money.</em> <br> <br> How natural is Noah's rejection of Charlotte's utterance?",50,NA,6e8f197c-0147-4573-ad62-16a0094e4a0c,2024-07-19 16:44:51 CEST
5241,0,html-slider-response,4,41390,0.0-2.0-0.1,NA,"<b>Robert:</b><em> Betsy has a cat.</em><br> <b>Maximilian:</b><em> No, she doesn't like apples.</em> <br> <br> How natural is Maximilian's rejection of Robert's utterance?",50,NA,6e8f197c-0147-4573-ad62-16a0094e4a0c,2024-07-19 16:44:51 CEST
5843,88,html-slider-response,5,47235,0.0-2.0-0.2,NA,"<b>Ken:</b><em> Mia confessed that Greg bought a new car.</em><br> <b>Charlie:</b><em>  No, he didn't buy a new car.</em> <br> <br> How natural is Charlie's rejection of Ken's utterance?",50,NA,6e8f197c-0147-4573-ad62-16a0094e4a0c,2024-07-19 16:44:51 CEST
4558,90,html-slider-response,6,51795,0.0-2.0-0.3,NA,"<b>Chloe:</b><em> Patricia confirmed that Dustin lost his key.</em><br> <b>Leo:</b><em>  No, he didn't lose his key.</em> <br> <br> How natural is Leo's rejection of Chloe's utterance?",50,NA,6e8f197c-0147-4573-ad62-16a0094e4a0c,2024-07-19 16:44:51 CEST
4880,91,html-slider-response,7,56676,0.0-2.0-0.4,NA,"<b>Nora:</b><em> Tony knows that Lucy broke the plate.</em><br> <b>Nina:</b><em>  No, she didn't break the plate.</em> <br> <br> How natural is Nina's rejection of Nora's utterance?",50,NA,6e8f197c-0147-4573-ad62-16a0094e4a0c,2024-07-19 16:44:51 CEST
7944,93,html-slider-response,8,64623,0.0-2.0-0.5,NA,"<b>Vincent:</b><em> Jack, who saw the murder, ran away.</em><br> <b>Oliver:</b><em>  No, he didn't see the murder.</em> <br> <br> How natural is Oliver's rejection of Vincent's utterance?",50,NA,6e8f197c-0147-4573-ad62-16a0094e4a0c,2024-07-19 16:44:51 CEST
8278,92,html-slider-response,9,72902,0.0-2.0-0.6,NA,"<b>Grace:</b><em> Lucy forgave Danny, who ate the last cupcake.</em><br> <b>Bob:</b><em>  No, he didn't eat the last cupcake.</em> <br> <br> How natural is Bob's rejection of Grace's utterance?",50,NA,6e8f197c-0147-4573-ad62-16a0094e4a0c,2024-07-19 16:44:51 CEST
7348,89,html-slider-response,10,80253,0.0-2.0-0.7,NA,"<b>Mary:</b><em> Arthur took a French course.</em><br> <b>Lily:</b><em> No, he took a Spanish course.</em> <br> <br> How natural is Lily's rejection of Mary's utterance?",50,NA,6e8f197c-0147-4573-ad62-16a0094e4a0c,2024-07-19 16:44:51 CEST
9701,85,html-slider-response,11,89957,0.0-2.0-0.8,NA,"<b>Alice:</b><em> Emma is right that Raul cheated on his wife.</em><br> <b>Frank:</b><em>  No, he didn't cheat on his wife.</em> <br> <br> How natural is Frank's rejection of Alice's utterance?",50,NA,6e8f197c-0147-4573-ad62-16a0094e4a0c,2024-07-19 16:44:51 CEST
12705,"{""P0_Q0"":null,""age"":""24"",""gender"":""male"",""language"":""yes"",""amE"":""yes"",""comments"":""""}",survey,12,102787,0.0-3.0,NA,NA,NA,[],6e8f197c-0147-4573-ad62-16a0094e4a0c,2024-07-19 16:44:51 CEST
14620,"{""Q0"":""susan""}",survey-text,0,14641,0.0-0.0-0.0,TRUE,NA,NA,NA,c41d36f6-1f48-4eeb-b7bc-067f3eb5f108,2024-07-19 16:46:19 CEST
1669,0,html-button-response,1,16313,0.0-0.0-3.0-0.0,NA,<p style='text-align:left'><b> Correct response! You are a human :) </b><br><br></p>,NA,NA,c41d36f6-1f48-4eeb-b7bc-067f3eb5f108,2024-07-19 16:46:19 CEST
3706,0,html-button-response,2,20023,0.0-1.0,NA,"<h3>Instructions</h3>  <p style='text-align:left'>In this experiment, you will read nine conversations between two speakers, as in this example, where Candy makes a statement and Lenny rejects it.</p>  <p style='text-align:left'> <b>Candy</b>: <i>Jens doesn't like hiking. </i> <br> <b>Lenny</b>: <i> No, he likes hiking. </i> </p>  <p style='text-align:left'>We ask you to rate the naturalness of the rejection. You will give your response on a slider marked 'totally natural' at one end and 'totally unnatural' at the other.</p>  <p style='text-align:left'>This experiment will take around 2 minutes, and you will be paid 40 cents.</p>  <p style='text-align:left' font size=""1"">By clicking on the button below, you agree to participate in this experiment, which is conducted by researchers at the University of Stuttgart. You may withdraw from this experiment at any time. The data collected will be anonymous and confidential. If you have any questions, you may contact the requester through Prolific's platform, or directly at st180735@stud.uni-stuttgart.de.</p>",NA,NA,c41d36f6-1f48-4eeb-b7bc-067f3eb5f108,2024-07-19 16:46:19 CEST
12593,76,html-slider-response,3,32622,0.0-2.0-0.0,NA,"<b>William:</b><em> David discovered that Ann stole the money.</em><br> <b>Ken:</b><em>  No, she didn't steal the money.</em> <br> <br> How natural is Ken's rejection of William's utterance?",50,NA,c41d36f6-1f48-4eeb-b7bc-067f3eb5f108,2024-07-19 16:46:19 CEST
13307,71,html-slider-response,4,45933,0.0-2.0-0.1,NA,"<b>Alice:</b><em> Emma confessed that Raul cheated on his wife.</em><br> <b>Bob:</b><em>  No, he didn't cheat on his wife.</em> <br> <br> How natural is Bob's rejection of Alice's utterance?",50,NA,c41d36f6-1f48-4eeb-b7bc-067f3eb5f108,2024-07-19 16:46:19 CEST
6535,75,html-slider-response,5,52471,0.0-2.0-0.2,NA,"<b>Grace:</b><em> The chef scolded Lucy, who broke the plate.</em><br> <b>Steven:</b><em>  No, she didn't break the plate.</em> <br> <br> How natural is Steven's rejection of Grace's utterance?",50,NA,c41d36f6-1f48-4eeb-b7bc-067f3eb5f108,2024-07-19 16:46:19 CEST
2588,63,html-slider-response,6,55062,0.0-2.0-0.3,NA,"<b>Clare:</b><em> Patricia knows that Dustin lost his key.</em><br> <b>Vincent:</b><em>  No, he didn't lose his key.</em> <br> <br> How natural is Vincent's rejection of Clare's utterance?",50,NA,c41d36f6-1f48-4eeb-b7bc-067f3eb5f108,2024-07-19 16:46:19 CEST
7055,11,html-slider-response,7,62120,0.0-2.0-0.4,NA,"<b>Robert:</b><em> Betsy has a cat.</em><br> <b>Maximilian:</b><em> No, she doesn't like apples.</em> <br> <br> How natural is Maximilian's rejection of Robert's utterance?",50,NA,c41d36f6-1f48-4eeb-b7bc-067f3eb5f108,2024-07-19 16:46:19 CEST
6278,68,html-slider-response,8,68401,0.0-2.0-0.5,NA,"<b>Frank:</b><em> Linda confirmed that Danny ate the last cupcake.</em><br> <b>Charlie:</b><em>  No, he didn't eat the last cupcake.</em> <br> <br> How natural is Charlie's rejection of Frank's utterance?",50,NA,c41d36f6-1f48-4eeb-b7bc-067f3eb5f108,2024-07-19 16:46:19 CEST
4212,68,html-slider-response,9,72617,0.0-2.0-0.6,NA,"<b>Mary:</b><em> Arthur took a French course.</em><br> <b>Lily:</b><em> No, he took a Spanish course.</em> <br> <br> How natural is Lily's rejection of Mary's utterance?",50,NA,c41d36f6-1f48-4eeb-b7bc-067f3eb5f108,2024-07-19 16:46:19 CEST
9967,19,html-slider-response,10,82587,0.0-2.0-0.7,NA,"<b>Leo:</b><em> Mia is right that Greg bought a new car.</em><br> <b>Oliver:</b><em>  No, he didn't buy a new car.</em> <br> <br> How natural is Oliver's rejection of Leo's utterance?",50,NA,c41d36f6-1f48-4eeb-b7bc-067f3eb5f108,2024-07-19 16:46:19 CEST
7049,57,html-slider-response,11,89638,0.0-2.0-0.8,NA,"<b>Chloe:</b><em> Jack, who saw the murder, ran away.</em><br> <b>Dawn:</b><em>  No, he didn't see the murder.</em> <br> <br> How natural is Dawn's rejection of Chloe's utterance?",50,NA,c41d36f6-1f48-4eeb-b7bc-067f3eb5f108,2024-07-19 16:46:19 CEST
11489,"{""P0_Q0"":null,""age"":""36"",""gender"":""female"",""language"":""yes"",""amE"":""yes"",""comments"":""""}",survey,12,101200,0.0-3.0,NA,NA,NA,[],c41d36f6-1f48-4eeb-b7bc-067f3eb5f108,2024-07-19 16:46:19 CEST
10270,"{""Q0"":""Susan""}",survey-text,0,10298,0.0-0.0-0.0,TRUE,NA,NA,NA,22cfe06d-aa84-45b4-839f-b63121d92635,2024-07-19 16:46:53 CEST
1759,0,html-button-response,1,12066,0.0-0.0-3.0-0.0,NA,<p style='text-align:left'><b> Correct response! You are a human :) </b><br><br></p>,NA,NA,22cfe06d-aa84-45b4-839f-b63121d92635,2024-07-19 16:46:53 CEST
24902,0,html-button-response,2,36973,0.0-1.0,NA,"<h3>Instructions</h3>  <p style='text-align:left'>In this experiment, you will read nine conversations between two speakers, as in this example, where Candy makes a statement and Lenny rejects it.</p>  <p style='text-align:left'> <b>Candy</b>: <i>Jens doesn't like hiking. </i> <br> <b>Lenny</b>: <i> No, he likes hiking. </i> </p>  <p style='text-align:left'>We ask you to rate the naturalness of the rejection. You will give your response on a slider marked 'totally natural' at one end and 'totally unnatural' at the other.</p>  <p style='text-align:left'>This experiment will take around 2 minutes, and you will be paid 40 cents.</p>  <p style='text-align:left' font size=""1"">By clicking on the button below, you agree to participate in this experiment, which is conducted by researchers at the University of Stuttgart. You may withdraw from this experiment at any time. The data collected will be anonymous and confidential. If you have any questions, you may contact the requester through Prolific's platform, or directly at st180735@stud.uni-stuttgart.de.</p>",NA,NA,22cfe06d-aa84-45b4-839f-b63121d92635,2024-07-19 16:46:53 CEST
8563,42,html-slider-response,3,45541,0.0-2.0-0.0,NA,"<b>Steven:</b><em> The boss condemned Dustin, who lost his key.</em><br> <b>Frank:</b><em>  No, he didn't lose his key.</em> <br> <br> How natural is Frank's rejection of Steven's utterance?",50,NA,22cfe06d-aa84-45b4-839f-b63121d92635,2024-07-19 16:46:53 CEST
12317,34,html-slider-response,4,57865,0.0-2.0-0.1,NA,"<b>Nina:</b><em> Jack, who saw the murder, ran away.</em><br> <b>Leo:</b><em>  No, he didn't see the murder.</em> <br> <br> How natural is Leo's rejection of Nina's utterance?",50,NA,22cfe06d-aa84-45b4-839f-b63121d92635,2024-07-19 16:46:53 CEST
6984,45,html-slider-response,5,64854,0.0-2.0-0.2,NA,"<b>Charlotte:</b><em> Emma knows that Raul cheated on his wife.</em><br> <b>Alice:</b><em>  No, he didn't cheat on his wife.</em> <br> <br> How natural is Alice's rejection of Charlotte's utterance?",50,NA,22cfe06d-aa84-45b4-839f-b63121d92635,2024-07-19 16:46:53 CEST
5401,42,html-slider-response,6,70259,0.0-2.0-0.3,NA,"<b>Ken:</b><em> Linda discovered that Danny ate the last cupcake.</em><br> <b>Nora:</b><em>  No, he didn't eat the last cupcake.</em> <br> <br> How natural is Nora's rejection of Ken's utterance?",50,NA,22cfe06d-aa84-45b4-839f-b63121d92635,2024-07-19 16:46:53 CEST
4314,68,html-slider-response,7,74578,0.0-2.0-0.4,NA,"<b>Mary:</b><em> Arthur took a French course.</em><br> <b>Lily:</b><em> No, he took a Spanish course.</em> <br> <br> How natural is Lily's rejection of Mary's utterance?",50,NA,22cfe06d-aa84-45b4-839f-b63121d92635,2024-07-19 16:46:53 CEST
6965,50,html-slider-response,8,81551,0.0-2.0-0.5,NA,"<b>Dawn:</b><em> David confessed that Ann stole the money.</em><br> <b>Charlie:</b><em>  No, she didn't steal the money.</em> <br> <br> How natural is Charlie's rejection of Dawn's utterance?",50,NA,22cfe06d-aa84-45b4-839f-b63121d92635,2024-07-19 16:46:53 CEST
5653,3,html-slider-response,9,87213,0.0-2.0-0.6,NA,"<b>Robert:</b><em> Betsy has a cat.</em><br> <b>Maximilian:</b><em> No, she doesn't like apples.</em> <br> <br> How natural is Maximilian's rejection of Robert's utterance?",50,NA,22cfe06d-aa84-45b4-839f-b63121d92635,2024-07-19 16:46:53 CEST
6241,50,html-slider-response,10,93459,0.0-2.0-0.7,NA,"<b>Bob:</b><em> Tony confirmed that Lucy broke the plate.</em><br> <b>Noah:</b><em>  No, she didn't break the plate.</em> <br> <br> How natural is Noah's rejection of Bob's utterance?",50,NA,22cfe06d-aa84-45b4-839f-b63121d92635,2024-07-19 16:46:53 CEST
9076,50,html-slider-response,11,102541,0.0-2.0-0.8,NA,"<b>Isabel:</b><em> Mia is right that Greg bought a new car.</em><br> <b>William:</b><em>  No, he didn't buy a new car.</em> <br> <br> How natural is William's rejection of Isabel's utterance?",50,NA,22cfe06d-aa84-45b4-839f-b63121d92635,2024-07-19 16:46:53 CEST
8198,"{""P0_Q0"":null,""age"":""34"",""gender"":""female"",""language"":""yes"",""amE"":""yes"",""comments"":""""}",survey,12,110951,0.0-3.0,NA,NA,NA,[],22cfe06d-aa84-45b4-839f-b63121d92635,2024-07-19 16:46:53 CEST
8219,"{""Q0"":""Linda""}",survey-text,0,8256,0.0-0.0-0.0,TRUE,NA,NA,NA,56f789fc-611c-4965-afb3-643a8cbea8b4,2024-07-19 16:46:59 CEST
2073,0,html-button-response,1,10336,0.0-0.0-3.0-0.0,NA,<p style='text-align:left'><b> Correct response! You are a human :) </b><br><br></p>,NA,NA,56f789fc-611c-4965-afb3-643a8cbea8b4,2024-07-19 16:46:59 CEST
12814,0,html-button-response,2,23154,0.0-1.0,NA,"<h3>Instructions</h3>  <p style='text-align:left'>In this experiment, you will read nine conversations between two speakers, as in this example, where Candy makes a statement and Lenny rejects it.</p>  <p style='text-align:left'> <b>Candy</b>: <i>Jens doesn't like hiking. </i> <br> <b>Lenny</b>: <i> No, he likes hiking. </i> </p>  <p style='text-align:left'>We ask you to rate the naturalness of the rejection. You will give your response on a slider marked 'totally natural' at one end and 'totally unnatural' at the other.</p>  <p style='text-align:left'>This experiment will take around 2 minutes, and you will be paid 40 cents.</p>  <p style='text-align:left' font size=""1"">By clicking on the button below, you agree to participate in this experiment, which is conducted by researchers at the University of Stuttgart. You may withdraw from this experiment at any time. The data collected will be anonymous and confidential. If you have any questions, you may contact the requester through Prolific's platform, or directly at st180735@stud.uni-stuttgart.de.</p>",NA,NA,56f789fc-611c-4965-afb3-643a8cbea8b4,2024-07-19 16:46:59 CEST
9444,84,html-slider-response,3,32604,0.0-2.0-0.0,NA,"<b>Charlotte:</b><em> David confessed that Ann stole the money.</em><br> <b>Chloe:</b><em>  No, she didn't steal the money.</em> <br> <br> How natural is Chloe's rejection of Charlotte's utterance?",50,NA,56f789fc-611c-4965-afb3-643a8cbea8b4,2024-07-19 16:46:59 CEST
6013,71,html-slider-response,4,38622,0.0-2.0-0.1,NA,"<b>Steven:</b><em> Tony discovered that Lucy broke the plate.</em><br> <b>Oliver:</b><em>  No, she didn't break the plate.</em> <br> <br> How natural is Oliver's rejection of Steven's utterance?",50,NA,56f789fc-611c-4965-afb3-643a8cbea8b4,2024-07-19 16:46:59 CEST
4797,74,html-slider-response,5,43424,0.0-2.0-0.2,NA,"<b>Frank:</b><em> Greg, who bought a new car, has a driver's license.</em><br> <b>Nina:</b><em>  No, he didn't buy a new car.</em> <br> <br> How natural is Nina's rejection of Frank's utterance?",50,NA,56f789fc-611c-4965-afb3-643a8cbea8b4,2024-07-19 16:46:59 CEST
3944,70,html-slider-response,6,47374,0.0-2.0-0.3,NA,"<b>Alice:</b><em> The boss condemned Dustin, who lost his key.</em><br> <b>Nora:</b><em>  No, he didn't lose his key.</em> <br> <br> How natural is Nora's rejection of Alice's utterance?",50,NA,56f789fc-611c-4965-afb3-643a8cbea8b4,2024-07-19 16:46:59 CEST
4628,29,html-slider-response,7,52006,0.0-2.0-0.4,NA,"<b>Mary:</b><em> Arthur took a French course.</em><br> <b>Lily:</b><em> No, he took a Spanish course.</em> <br> <br> How natural is Lily's rejection of Mary's utterance?",50,NA,56f789fc-611c-4965-afb3-643a8cbea8b4,2024-07-19 16:46:59 CEST
3645,70,html-slider-response,8,55656,0.0-2.0-0.5,NA,"<b>Charlie:</b><em> Linda knows that Danny ate the last cupcake.</em><br> <b>Isabel:</b><em>  No, he didn't eat the last cupcake.</em> <br> <br> How natural is Isabel's rejection of Charlie's utterance?",50,NA,56f789fc-611c-4965-afb3-643a8cbea8b4,2024-07-19 16:46:59 CEST
4646,0,html-slider-response,9,60307,0.0-2.0-0.6,NA,"<b>Robert:</b><em> Betsy has a cat.</em><br> <b>Maximilian:</b><em> No, she doesn't like apples.</em> <br> <br> How natural is Maximilian's rejection of Robert's utterance?",50,NA,56f789fc-611c-4965-afb3-643a8cbea8b4,2024-07-19 16:46:59 CEST
6729,71,html-slider-response,10,67040,0.0-2.0-0.7,NA,"<b>Leo:</b><em> Sophia is right that Jack saw the murder.</em><br> <b>Vincent:</b><em>  No, he didn't see the murder.</em> <br> <br> How natural is Vincent's rejection of Leo's utterance?",50,NA,56f789fc-611c-4965-afb3-643a8cbea8b4,2024-07-19 16:46:59 CEST
4766,70,html-slider-response,11,71810,0.0-2.0-0.8,NA,"<b>Ken:</b><em> Emma confirmed that Raul cheated on his wife.</em><br> <b>Clare:</b><em>  No, he didn't cheat on his wife.</em> <br> <br> How natural is Clare's rejection of Ken's utterance?",50,NA,56f789fc-611c-4965-afb3-643a8cbea8b4,2024-07-19 16:46:59 CEST
29898,"{""P0_Q0"":null,""age"":""41"",""gender"":""female"",""language"":""yes"",""amE"":""yes"",""comments"":""I enjoyed doing this study.  I would be interested in doing similar studies in the near future.""}",survey,12,101780,0.0-3.0,NA,NA,NA,[],56f789fc-611c-4965-afb3-643a8cbea8b4,2024-07-19 16:46:59 CEST
9350,"{""Q0"":""Barbara""}",survey-text,0,9365,0.0-0.0-0.0,TRUE,NA,NA,NA,4d34b46e-97b5-4985-b839-3b8cef06b553,2024-07-19 16:47:18 CEST
1477,0,html-button-response,1,10843,0.0-0.0-3.0-0.0,NA,<p style='text-align:left'><b> Correct response! You are a human :) </b><br><br></p>,NA,NA,4d34b46e-97b5-4985-b839-3b8cef06b553,2024-07-19 16:47:18 CEST
14065,0,html-button-response,2,24909,0.0-1.0,NA,"<h3>Instructions</h3>  <p style='text-align:left'>In this experiment, you will read nine conversations between two speakers, as in this example, where Candy makes a statement and Lenny rejects it.</p>  <p style='text-align:left'> <b>Candy</b>: <i>Jens doesn't like hiking. </i> <br> <b>Lenny</b>: <i> No, he likes hiking. </i> </p>  <p style='text-align:left'>We ask you to rate the naturalness of the rejection. You will give your response on a slider marked 'totally natural' at one end and 'totally unnatural' at the other.</p>  <p style='text-align:left'>This experiment will take around 2 minutes, and you will be paid 40 cents.</p>  <p style='text-align:left' font size=""1"">By clicking on the button below, you agree to participate in this experiment, which is conducted by researchers at the University of Stuttgart. You may withdraw from this experiment at any time. The data collected will be anonymous and confidential. If you have any questions, you may contact the requester through Prolific's platform, or directly at st180735@stud.uni-stuttgart.de.</p>",NA,NA,4d34b46e-97b5-4985-b839-3b8cef06b553,2024-07-19 16:47:18 CEST
8340,93,html-slider-response,3,33250,0.0-2.0-0.0,NA,"<b>Clare:</b><em> Linda confirmed that Danny ate the last cupcake.</em><br> <b>Chloe:</b><em>  No, he didn't eat the last cupcake.</em> <br> <br> How natural is Chloe's rejection of Clare's utterance?",50,NA,4d34b46e-97b5-4985-b839-3b8cef06b553,2024-07-19 16:47:18 CEST
5498,100,html-slider-response,4,38749,0.0-2.0-0.1,NA,"<b>Mary:</b><em> Arthur took a French course.</em><br> <b>Lily:</b><em> No, he took a Spanish course.</em> <br> <br> How natural is Lily's rejection of Mary's utterance?",50,NA,4d34b46e-97b5-4985-b839-3b8cef06b553,2024-07-19 16:47:18 CEST
7020,87,html-slider-response,5,45769,0.0-2.0-0.2,NA,"<b>Grace:</b><em> Emma is right that Raul cheated on his wife.</em><br> <b>William:</b><em>  No, he didn't cheat on his wife.</em> <br> <br> How natural is William's rejection of Grace's utterance?",50,NA,4d34b46e-97b5-4985-b839-3b8cef06b553,2024-07-19 16:47:18 CEST
9311,10,html-slider-response,6,55081,0.0-2.0-0.3,NA,"<b>Leo:</b><em> David discovered that Ann stole the money.</em><br> <b>Alice:</b><em>  No, she didn't steal the money.</em> <br> <br> How natural is Alice's rejection of Leo's utterance?",50,NA,4d34b46e-97b5-4985-b839-3b8cef06b553,2024-07-19 16:47:18 CEST
6377,2,html-slider-response,7,61458,0.0-2.0-0.4,NA,"<b>Robert:</b><em> Betsy has a cat.</em><br> <b>Maximilian:</b><em> No, she doesn't like apples.</em> <br> <br> How natural is Maximilian's rejection of Robert's utterance?",50,NA,4d34b46e-97b5-4985-b839-3b8cef06b553,2024-07-19 16:47:18 CEST
7921,83,html-slider-response,8,69380,0.0-2.0-0.5,NA,"<b>Ken:</b><em> The police found Jack, who saw the murder.</em><br> <b>Vincent:</b><em>  No, he didn't see the murder.</em> <br> <br> How natural is Vincent's rejection of Ken's utterance?",50,NA,4d34b46e-97b5-4985-b839-3b8cef06b553,2024-07-19 16:47:18 CEST
9989,34,html-slider-response,9,79370,0.0-2.0-0.6,NA,"<b>Nina:</b><em> Mia confessed that Greg bought a new car.</em><br> <b>Isabel:</b><em>  No, he didn't buy a new car.</em> <br> <br> How natural is Isabel's rejection of Nina's utterance?",50,NA,4d34b46e-97b5-4985-b839-3b8cef06b553,2024-07-19 16:47:18 CEST
10086,79,html-slider-response,10,89457,0.0-2.0-0.7,NA,"<b>Oliver:</b><em> Patricia knows that Dustin lost his key.</em><br> <b>Nora:</b><em>  No, he didn't lose his key.</em> <br> <br> How natural is Nora's rejection of Oliver's utterance?",50,NA,4d34b46e-97b5-4985-b839-3b8cef06b553,2024-07-19 16:47:18 CEST
