rt,response,trial_type,trial_index,time_elapsed,internal_node_id,correct,stimulus,slider_start,accuracy,participant_id,ctime
14479,"{""Q0"":""Linda""}",survey-text,0,14483,0.0-0.0-0.0,TRUE,NA,NA,NA,cb5e22cc-83fa-476a-9f21-2fe0e1314bb8,2024-07-19 13:38:51 CEST
1950,0,html-button-response,1,16435,0.0-0.0-3.0-0.0,NA,<p style='text-align:left'><b> Correct response! You are a human :) </b><br><br></p>,NA,NA,cb5e22cc-83fa-476a-9f21-2fe0e1314bb8,2024-07-19 13:38:51 CEST
15207,0,html-button-response,2,31643,0.0-1.0,NA,"<h3>Instructions</h3>  <p style='text-align:left'>In this experiment, you will read nine conversations between two speakers, as in this example, where Candy asks a question, and Lenny responds.</p>  <p style='text-align:left'> <b>Candy</b>: <i>Is this house big? </i> <br> <b>Lenny</b>: <i> Cassandra suggested that it's huge. </i> </p>  <p style='text-align:left'> We ask you to judge how well the response fits the question. You will give your judgment on a slider marked 'totally doesn't fit' at one end and 'totally fits' at the other.</p>  <p style='text-align:left'>The experiment will take around 2 minutes, and you will be paid 40 cents.</p>  <p style='text-align:left' font size=""1"">By clicking on the button below, you agree to participate in this experiment, which is conducted by researchers at the University of Stuttgart. You may withdraw from this experiment at any time. The data collected will be anonymous and confidential. If you have any questions, you may contact the requester through Prolific's platform, or directly at st180735@stud.uni-stuttgart.de.</p>",NA,NA,cb5e22cc-83fa-476a-9f21-2fe0e1314bb8,2024-07-19 13:38:51 CEST
10176,96,html-slider-response,3,41819,0.0-2.0-0.0,NA,<b>Mary:</b><em> Which course did Ava take?</em><br> <b>John:</b><em> She took the French course.</em> <br> <br> How well does John's response fit Mary's question?,50,NA,cb5e22cc-83fa-476a-9f21-2fe0e1314bb8,2024-07-19 13:38:51 CEST
19536,75,html-slider-response,4,61356,0.0-2.0-0.1,NA,"<b>Charlotte:</b><em> Who did Raul cheat on?</em><br> <b>Chloe:</b><em> Raul, who cheated on his wife, feels guilty.</em> <br> <br> How well does Chloe's response fit Charlotte's question?",50,NA,cb5e22cc-83fa-476a-9f21-2fe0e1314bb8,2024-07-19 13:38:51 CEST
13560,36,html-slider-response,5,74917,0.0-2.0-0.2,NA,<b>Leo:</b><em> What did Lucy break?</em><br> <b>Nora:</b><em> Tony is right that she broke the plate.</em> <br> <br> How well does Nora's response fit Leo's question?,50,NA,cb5e22cc-83fa-476a-9f21-2fe0e1314bb8,2024-07-19 13:38:51 CEST
12256,20,html-slider-response,6,87174,0.0-2.0-0.3,NA,<b>Noah:</b><em> What did Dustin lose?</em><br> <b>Nina:</b><em> Patricia discovered that he lost his key.</em> <br> <br> How well does Nina's response fit Noah's question?,50,NA,cb5e22cc-83fa-476a-9f21-2fe0e1314bb8,2024-07-19 13:38:51 CEST
7391,15,html-slider-response,7,94566,0.0-2.0-0.4,NA,"<b>William:</b><em> What did Jack see?</em><br> <b>Vincent:</b><em> The police found Jack, who saw the murder.</em> <br> <br> How well does Vincent's response fit William's question?",50,NA,cb5e22cc-83fa-476a-9f21-2fe0e1314bb8,2024-07-19 13:38:51 CEST
8134,7,html-slider-response,8,102702,0.0-2.0-0.5,NA,<b>Steven:</b><em> What did Ann steal?</em><br> <b>Frank:</b><em> David confessed that she stole the money.</em> <br> <br> How well does Frank's response fit Steven's question?,50,NA,cb5e22cc-83fa-476a-9f21-2fe0e1314bb8,2024-07-19 13:38:51 CEST
7040,55,html-slider-response,9,109741,0.0-2.0-0.6,NA,<b>Dawn:</b><em> What did Greg buy?</em><br> <b>Charlie:</b><em> Mia confirmed that he bought a new car.</em> <br> <br> How well does Charlie's response fit Dawn's question?,50,NA,cb5e22cc-83fa-476a-9f21-2fe0e1314bb8,2024-07-19 13:38:51 CEST
12624,34,html-slider-response,10,122366,0.0-2.0-0.7,NA,<b>Alice:</b><em> What did Danny eat?</em><br> <b>Isabel:</b><em> Linda knows that he ate the last cupcake.</em> <br> <br> How well does Isabel's response fit Alice's question?,50,NA,cb5e22cc-83fa-476a-9f21-2fe0e1314bb8,2024-07-19 13:38:51 CEST
10534,0,html-slider-response,11,132902,0.0-2.0-0.8,NA,<b>Jennifer:</b><em> What does Betsy have?</em><br> <b>Robert:</b><em> She loves dancing salsa.</em> <br> <br> How well does Robert's response fit Jennifer's question?,50,NA,cb5e22cc-83fa-476a-9f21-2fe0e1314bb8,2024-07-19 13:38:51 CEST
25447,"{""P0_Q0"":null,""age"":""48"",""gender"":""male"",""language"":""yes"",""amE"":""yes"",""comments"":""""}",survey,12,158377,0.0-3.0,NA,NA,NA,[],cb5e22cc-83fa-476a-9f21-2fe0e1314bb8,2024-07-19 13:38:51 CEST
29932,"{""Q0"":""Linda""}",survey-text,0,29951,0.0-0.0-0.0,TRUE,NA,NA,NA,aa1a41ee-4117-4ec1-9e09-525806d0368e,2024-07-19 13:39:15 CEST
7470,0,html-button-response,1,37423,0.0-0.0-3.0-0.0,NA,<p style='text-align:left'><b> Correct response! You are a human :) </b><br><br></p>,NA,NA,aa1a41ee-4117-4ec1-9e09-525806d0368e,2024-07-19 13:39:15 CEST
40494,0,html-button-response,2,77917,0.0-1.0,NA,"<h3>Instructions</h3>  <p style='text-align:left'>In this experiment, you will read nine conversations between two speakers, as in this example, where Candy asks a question, and Lenny responds.</p>  <p style='text-align:left'> <b>Candy</b>: <i>Is this house big? </i> <br> <b>Lenny</b>: <i> Cassandra suggested that it's huge. </i> </p>  <p style='text-align:left'> We ask you to judge how well the response fits the question. You will give your judgment on a slider marked 'totally doesn't fit' at one end and 'totally fits' at the other.</p>  <p style='text-align:left'>The experiment will take around 2 minutes, and you will be paid 40 cents.</p>  <p style='text-align:left' font size=""1"">By clicking on the button below, you agree to participate in this experiment, which is conducted by researchers at the University of Stuttgart. You may withdraw from this experiment at any time. The data collected will be anonymous and confidential. If you have any questions, you may contact the requester through Prolific's platform, or directly at st180735@stud.uni-stuttgart.de.</p>",NA,NA,aa1a41ee-4117-4ec1-9e09-525806d0368e,2024-07-19 13:39:15 CEST
12270,100,html-slider-response,3,90189,0.0-2.0-0.0,NA,<b>Mary:</b><em> Which course did Ava take?</em><br> <b>John:</b><em> She took the French course.</em> <br> <br> How well does John's response fit Mary's question?,50,NA,aa1a41ee-4117-4ec1-9e09-525806d0368e,2024-07-19 13:39:15 CEST
17862,10,html-slider-response,4,108053,0.0-2.0-0.1,NA,<b>Grace:</b><em> What did Jack see?</em><br> <b>Charlie:</b><em> Sophia is right that he saw the murder.</em> <br> <br> How well does Charlie's response fit Grace's question?,50,NA,aa1a41ee-4117-4ec1-9e09-525806d0368e,2024-07-19 13:39:15 CEST
12927,0,html-slider-response,5,120981,0.0-2.0-0.2,NA,"<b>Leo:</b><em> What did Greg buy?</em><br> <b>Dawn:</b><em> Greg, who bought a new car, has a driver's license.</em> <br> <br> How well does Dawn's response fit Leo's question?",50,NA,aa1a41ee-4117-4ec1-9e09-525806d0368e,2024-07-19 13:39:15 CEST
22623,2,html-slider-response,6,143606,0.0-2.0-0.3,NA,<b>Frank:</b><em> Who did Raul cheat on?</em><br> <b>Nina:</b><em> Emma knows that he cheated on his wife.</em> <br> <br> How well does Nina's response fit Frank's question?,50,NA,aa1a41ee-4117-4ec1-9e09-525806d0368e,2024-07-19 13:39:15 CEST
12654,84,html-slider-response,7,156261,0.0-2.0-0.4,NA,<b>Vincent:</b><em> What did Ann steal?</em><br> <b>Bob:</b><em> David confessed that she stole the money.</em> <br> <br> How well does Bob's response fit Vincent's question?,50,NA,aa1a41ee-4117-4ec1-9e09-525806d0368e,2024-07-19 13:39:15 CEST
6199,75,html-slider-response,8,162461,0.0-2.0-0.5,NA,<b>Isabel:</b><em> What did Dustin lose?</em><br> <b>Steven:</b><em> Patricia discovered that he lost his key.</em> <br> <br> How well does Steven's response fit Isabel's question?,50,NA,aa1a41ee-4117-4ec1-9e09-525806d0368e,2024-07-19 13:39:15 CEST
6951,59,html-slider-response,9,169413,0.0-2.0-0.6,NA,"<b>Chloe:</b><em> What did Lucy break?</em><br> <b>Clare:</b><em> The chef scolded Lucy, who broke the plate.</em> <br> <br> How well does Clare's response fit Chloe's question?",50,NA,aa1a41ee-4117-4ec1-9e09-525806d0368e,2024-07-19 13:39:15 CEST
7447,0,html-slider-response,10,176861,0.0-2.0-0.7,NA,<b>Jennifer:</b><em> What does Betsy have?</em><br> <b>Robert:</b><em> She loves dancing salsa.</em> <br> <br> How well does Robert's response fit Jennifer's question?,50,NA,aa1a41ee-4117-4ec1-9e09-525806d0368e,2024-07-19 13:39:15 CEST
9303,100,html-slider-response,11,186166,0.0-2.0-0.8,NA,<b>William:</b><em> What did Danny eat?</em><br> <b>Oliver:</b><em> Linda confirmed that he ate the last cupcake.</em> <br> <br> How well does Oliver's response fit William's question?,50,NA,aa1a41ee-4117-4ec1-9e09-525806d0368e,2024-07-19 13:39:15 CEST
18196,"{""P0_Q0"":null,""age"":""39"",""gender"":""male"",""language"":""yes"",""amE"":""yes"",""comments"":""""}",survey,12,204411,0.0-3.0,NA,NA,NA,[],aa1a41ee-4117-4ec1-9e09-525806d0368e,2024-07-19 13:39:15 CEST
339736,"{""Q0"":""Linda""}",survey-text,0,339751,0.0-0.0-0.0,TRUE,NA,NA,NA,f0eedd04-2fcd-484d-9840-0f284253b334,2024-07-19 13:39:28 CEST
1767,0,html-button-response,1,341522,0.0-0.0-3.0-0.0,NA,<p style='text-align:left'><b> Correct response! You are a human :) </b><br><br></p>,NA,NA,f0eedd04-2fcd-484d-9840-0f284253b334,2024-07-19 13:39:28 CEST
41245,0,html-button-response,2,382769,0.0-1.0,NA,"<h3>Instructions</h3>  <p style='text-align:left'>In this experiment, you will read nine conversations between two speakers, as in this example, where Candy asks a question, and Lenny responds.</p>  <p style='text-align:left'> <b>Candy</b>: <i>Is this house big? </i> <br> <b>Lenny</b>: <i> Cassandra suggested that it's huge. </i> </p>  <p style='text-align:left'> We ask you to judge how well the response fits the question. You will give your judgment on a slider marked 'totally doesn't fit' at one end and 'totally fits' at the other.</p>  <p style='text-align:left'>The experiment will take around 2 minutes, and you will be paid 40 cents.</p>  <p style='text-align:left' font size=""1"">By clicking on the button below, you agree to participate in this experiment, which is conducted by researchers at the University of Stuttgart. You may withdraw from this experiment at any time. The data collected will be anonymous and confidential. If you have any questions, you may contact the requester through Prolific's platform, or directly at st180735@stud.uni-stuttgart.de.</p>",NA,NA,f0eedd04-2fcd-484d-9840-0f284253b334,2024-07-19 13:39:28 CEST
5989,0,html-slider-response,3,388761,0.0-2.0-0.0,NA,<b>Nina:</b><em> What did Ann steal?</em><br> <b>Alice:</b><em> David is right that she stole the money.</em> <br> <br> How well does Alice's response fit Nina's question?,50,NA,f0eedd04-2fcd-484d-9840-0f284253b334,2024-07-19 13:39:28 CEST
3581,100,html-slider-response,4,392346,0.0-2.0-0.1,NA,<b>Mary:</b><em> Which course did Ava take?</em><br> <b>John:</b><em> She took the French course.</em> <br> <br> How well does John's response fit Mary's question?,50,NA,f0eedd04-2fcd-484d-9840-0f284253b334,2024-07-19 13:39:28 CEST
4010,73,html-slider-response,5,396359,0.0-2.0-0.2,NA,<b>Noah:</b><em> What did Lucy break?</em><br> <b>Ken:</b><em> Tony confirmed that she broke the plate.</em> <br> <br> How well does Ken's response fit Noah's question?,50,NA,f0eedd04-2fcd-484d-9840-0f284253b334,2024-07-19 13:39:28 CEST
6225,27,html-slider-response,6,402585,0.0-2.0-0.3,NA,<b>Vincent:</b><em> What did Greg buy?</em><br> <b>Frank:</b><em> Mia knows that he bought a new car.</em> <br> <br> How well does Frank's response fit Vincent's question?,50,NA,f0eedd04-2fcd-484d-9840-0f284253b334,2024-07-19 13:39:28 CEST
4078,0,html-slider-response,7,406665,0.0-2.0-0.4,NA,<b>Jennifer:</b><em> What does Betsy have?</em><br> <b>Robert:</b><em> She loves dancing salsa.</em> <br> <br> How well does Robert's response fit Jennifer's question?,50,NA,f0eedd04-2fcd-484d-9840-0f284253b334,2024-07-19 13:39:28 CEST
32894,96,html-slider-response,8,439562,0.0-2.0-0.5,NA,<b>Dawn:</b><em> Who did Raul cheat on?</em><br> <b>Leo:</b><em> Emma confessed that he cheated on his wife.</em> <br> <br> How well does Leo's response fit Dawn's question?,50,NA,f0eedd04-2fcd-484d-9840-0f284253b334,2024-07-19 13:39:28 CEST
5411,22,html-slider-response,9,444975,0.0-2.0-0.6,NA,"<b>Oliver:</b><em> What did Danny eat?</em><br> <b>Isabel:</b><em> Lucy forgave Danny, who ate the last cupcake.</em> <br> <br> How well does Isabel's response fit Oliver's question?",50,NA,f0eedd04-2fcd-484d-9840-0f284253b334,2024-07-19 13:39:28 CEST
5419,69,html-slider-response,10,450395,0.0-2.0-0.7,NA,"<b>Nora:</b><em> What did Jack see?</em><br> <b>Charlie:</b><em> Jack, who saw the murder, ran away.</em> <br> <br> How well does Charlie's response fit Nora's question?",50,NA,f0eedd04-2fcd-484d-9840-0f284253b334,2024-07-19 13:39:28 CEST
3488,76,html-slider-response,11,453885,0.0-2.0-0.8,NA,<b>Grace:</b><em> What did Dustin lose?</em><br> <b>Bob:</b><em> Patricia discovered that he lost his key.</em> <br> <br> How well does Bob's response fit Grace's question?,50,NA,f0eedd04-2fcd-484d-9840-0f284253b334,2024-07-19 13:39:28 CEST
10018,"{""P0_Q0"":null,""age"":""33"",""gender"":""female"",""language"":""yes"",""amE"":""yes"",""comments"":""""}",survey,12,464020,0.0-3.0,NA,NA,NA,[],f0eedd04-2fcd-484d-9840-0f284253b334,2024-07-19 13:39:28 CEST
12606,"{""Q0"":""Margaret""}",survey-text,0,12659,0.0-0.0-0.0,TRUE,NA,NA,NA,5e2fcbf6-172a-4290-b890-40b5cb3c64f2,2024-07-19 13:42:04 CEST
3084,0,html-button-response,1,15746,0.0-0.0-3.0-0.0,NA,<p style='text-align:left'><b> Correct response! You are a human :) </b><br><br></p>,NA,NA,5e2fcbf6-172a-4290-b890-40b5cb3c64f2,2024-07-19 13:42:04 CEST
23265,0,html-button-response,2,39013,0.0-1.0,NA,"<h3>Instructions</h3>  <p style='text-align:left'>In this experiment, you will read nine conversations between two speakers, as in this example, where Candy asks a question, and Lenny responds.</p>  <p style='text-align:left'> <b>Candy</b>: <i>Is this house big? </i> <br> <b>Lenny</b>: <i> Cassandra suggested that it's huge. </i> </p>  <p style='text-align:left'> We ask you to judge how well the response fits the question. You will give your judgment on a slider marked 'totally doesn't fit' at one end and 'totally fits' at the other.</p>  <p style='text-align:left'>The experiment will take around 2 minutes, and you will be paid 40 cents.</p>  <p style='text-align:left' font size=""1"">By clicking on the button below, you agree to participate in this experiment, which is conducted by researchers at the University of Stuttgart. You may withdraw from this experiment at any time. The data collected will be anonymous and confidential. If you have any questions, you may contact the requester through Prolific's platform, or directly at st180735@stud.uni-stuttgart.de.</p>",NA,NA,5e2fcbf6-172a-4290-b890-40b5cb3c64f2,2024-07-19 13:42:04 CEST
9512,0,html-slider-response,3,48529,0.0-2.0-0.0,NA,<b>Jennifer:</b><em> What does Betsy have?</em><br> <b>Robert:</b><em> She loves dancing salsa.</em> <br> <br> How well does Robert's response fit Jennifer's question?,50,NA,5e2fcbf6-172a-4290-b890-40b5cb3c64f2,2024-07-19 13:42:04 CEST
9122,100,html-slider-response,4,57654,0.0-2.0-0.1,NA,<b>Steven:</b><em> What did Ann steal?</em><br> <b>Dawn:</b><em> David knows that she stole the money.</em> <br> <br> How well does Dawn's response fit Steven's question?,50,NA,5e2fcbf6-172a-4290-b890-40b5cb3c64f2,2024-07-19 13:42:04 CEST
3306,100,html-slider-response,5,60962,0.0-2.0-0.2,NA,<b>Mary:</b><em> Which course did Ava take?</em><br> <b>John:</b><em> She took the French course.</em> <br> <br> How well does John's response fit Mary's question?,50,NA,5e2fcbf6-172a-4290-b890-40b5cb3c64f2,2024-07-19 13:42:04 CEST
4063,100,html-slider-response,6,65026,0.0-2.0-0.3,NA,<b>Leo:</b><em> What did Greg buy?</em><br> <b>William:</b><em> Mia discovered that he bought a new car.</em> <br> <br> How well does William's response fit Leo's question?,50,NA,5e2fcbf6-172a-4290-b890-40b5cb3c64f2,2024-07-19 13:42:04 CEST
5152,50,html-slider-response,7,70180,0.0-2.0-0.4,NA,<b>Frank:</b><em> What did Lucy break?</em><br> <b>Charlie:</b><em> Tony confirmed that she broke the plate.</em> <br> <br> How well does Charlie's response fit Frank's question?,50,NA,5e2fcbf6-172a-4290-b890-40b5cb3c64f2,2024-07-19 13:42:04 CEST
6083,76,html-slider-response,8,76265,0.0-2.0-0.5,NA,"<b>Charlotte:</b><em> What did Dustin lose?</em><br> <b>Nora:</b><em> The boss condemned Dustin, who lost his key.</em> <br> <br> How well does Nora's response fit Charlotte's question?",50,NA,5e2fcbf6-172a-4290-b890-40b5cb3c64f2,2024-07-19 13:42:04 CEST
8468,93,html-slider-response,9,84735,0.0-2.0-0.6,NA,"<b>Chloe:</b><em> Who did Raul cheat on?</em><br> <b>Alice:</b><em> Raul, who cheated on his wife, feels guilty.</em> <br> <br> How well does Alice's response fit Chloe's question?",50,NA,5e2fcbf6-172a-4290-b890-40b5cb3c64f2,2024-07-19 13:42:04 CEST
6517,83,html-slider-response,10,91254,0.0-2.0-0.7,NA,<b>Isabel:</b><em> What did Danny eat?</em><br> <b>Grace:</b><em> Linda is right that he ate the last cupcake.</em> <br> <br> How well does Grace's response fit Isabel's question?,50,NA,5e2fcbf6-172a-4290-b890-40b5cb3c64f2,2024-07-19 13:42:04 CEST
5919,50,html-slider-response,11,97174,0.0-2.0-0.8,NA,<b>Oliver:</b><em> What did Jack see?</em><br> <b>Nina:</b><em> Sophia confessed that he saw the murder.</em> <br> <br> How well does Nina's response fit Oliver's question?,50,NA,5e2fcbf6-172a-4290-b890-40b5cb3c64f2,2024-07-19 13:42:04 CEST
17442,"{""P0_Q0"":null,""age"":""40"",""gender"":""female"",""language"":""yes"",""amE"":""yes"",""comments"":""""}",survey,12,114750,0.0-3.0,NA,NA,NA,[],5e2fcbf6-172a-4290-b890-40b5cb3c64f2,2024-07-19 13:42:04 CEST
8213,"{""Q0"":""Patricia""}",survey-text,0,8225,0.0-0.0-0.0,TRUE,NA,NA,NA,dd42e16b-f8f7-46f6-926f-a83eab8039bd,2024-07-19 13:44:00 CEST
1004,0,html-button-response,1,9230,0.0-0.0-3.0-0.0,NA,<p style='text-align:left'><b> Correct response! You are a human :) </b><br><br></p>,NA,NA,dd42e16b-f8f7-46f6-926f-a83eab8039bd,2024-07-19 13:44:00 CEST
2648,0,html-button-response,2,11879,0.0-1.0,NA,"<h3>Instructions</h3>  <p style='text-align:left'>In this experiment, you will read nine conversations between two speakers, as in this example, where Candy asks a question, and Lenny responds.</p>  <p style='text-align:left'> <b>Candy</b>: <i>Is this house big? </i> <br> <b>Lenny</b>: <i> Cassandra suggested that it's huge. </i> </p>  <p style='text-align:left'> We ask you to judge how well the response fits the question. You will give your judgment on a slider marked 'totally doesn't fit' at one end and 'totally fits' at the other.</p>  <p style='text-align:left'>The experiment will take around 2 minutes, and you will be paid 40 cents.</p>  <p style='text-align:left' font size=""1"">By clicking on the button below, you agree to participate in this experiment, which is conducted by researchers at the University of Stuttgart. You may withdraw from this experiment at any time. The data collected will be anonymous and confidential. If you have any questions, you may contact the requester through Prolific's platform, or directly at st180735@stud.uni-stuttgart.de.</p>",NA,NA,dd42e16b-f8f7-46f6-926f-a83eab8039bd,2024-07-19 13:44:00 CEST
8094,84,html-slider-response,3,19974,0.0-2.0-0.0,NA,<b>Nora:</b><em> What did Ann steal?</em><br> <b>Noah:</b><em> David is right that she stole the money.</em> <br> <br> How well does Noah's response fit Nora's question?,50,NA,dd42e16b-f8f7-46f6-926f-a83eab8039bd,2024-07-19 13:44:00 CEST
4981,97,html-slider-response,4,24956,0.0-2.0-0.1,NA,<b>Nina:</b><em> What did Danny eat?</em><br> <b>Oliver:</b><em> Linda confessed that he ate the last cupcake.</em> <br> <br> How well does Oliver's response fit Nina's question?,50,NA,dd42e16b-f8f7-46f6-926f-a83eab8039bd,2024-07-19 13:44:00 CEST
3975,0,html-slider-response,5,28932,0.0-2.0-0.2,NA,<b>Jennifer:</b><em> What does Betsy have?</em><br> <b>Robert:</b><em> She loves dancing salsa.</em> <br> <br> How well does Robert's response fit Jennifer's question?,50,NA,dd42e16b-f8f7-46f6-926f-a83eab8039bd,2024-07-19 13:44:00 CEST
2790,100,html-slider-response,6,31723,0.0-2.0-0.3,NA,<b>Chloe:</b><em> What did Dustin lose?</em><br> <b>Bob:</b><em> Patricia confirmed that he lost his key.</em> <br> <br> How well does Bob's response fit Chloe's question?,50,NA,dd42e16b-f8f7-46f6-926f-a83eab8039bd,2024-07-19 13:44:00 CEST
2249,83,html-slider-response,7,33973,0.0-2.0-0.4,NA,"<b>Dawn:</b><em> What did Jack see?</em><br> <b>Vincent:</b><em> Jack, who saw the murder, ran away.</em> <br> <br> How well does Vincent's response fit Dawn's question?",50,NA,dd42e16b-f8f7-46f6-926f-a83eab8039bd,2024-07-19 13:44:00 CEST
2720,80,html-slider-response,8,36694,0.0-2.0-0.5,NA,<b>Mary:</b><em> Which course did Ava take?</em><br> <b>John:</b><em> She took the French course.</em> <br> <br> How well does John's response fit Mary's question?,50,NA,dd42e16b-f8f7-46f6-926f-a83eab8039bd,2024-07-19 13:44:00 CEST
4248,93,html-slider-response,9,40943,0.0-2.0-0.6,NA,"<b>Charlie:</b><em> Who did Raul cheat on?</em><br> <b>Charlotte:</b><em> Ann criticized Raul, who cheated on his wife.</em> <br> <br> How well does Charlotte's response fit Charlie's question?",50,NA,dd42e16b-f8f7-46f6-926f-a83eab8039bd,2024-07-19 13:44:00 CEST
2255,100,html-slider-response,10,43199,0.0-2.0-0.7,NA,<b>Alice:</b><em> What did Lucy break?</em><br> <b>Leo:</b><em> Tony knows that she broke the plate.</em> <br> <br> How well does Leo's response fit Alice's question?,50,NA,dd42e16b-f8f7-46f6-926f-a83eab8039bd,2024-07-19 13:44:00 CEST
3482,65,html-slider-response,11,46682,0.0-2.0-0.8,NA,<b>Steven:</b><em> What did Greg buy?</em><br> <b>Ken:</b><em> Mia discovered that he bought a new car.</em> <br> <br> How well does Ken's response fit Steven's question?,50,NA,dd42e16b-f8f7-46f6-926f-a83eab8039bd,2024-07-19 13:44:00 CEST
8775,"{""P0_Q0"":null,""age"":""32"",""gender"":""male"",""language"":""yes"",""amE"":""yes"",""comments"":""""}",survey,12,55489,0.0-3.0,NA,NA,NA,[],dd42e16b-f8f7-46f6-926f-a83eab8039bd,2024-07-19 13:44:00 CEST
11520,"{""Q0"":""Mary""}",survey-text,0,11577,0.0-0.0-0.0,TRUE,NA,NA,NA,00cfd83c-a801-48f5-8fd1-e02d0674b38f,2024-07-19 13:44:52 CEST
2318,0,html-button-response,1,13897,0.0-0.0-3.0-0.0,NA,<p style='text-align:left'><b> Correct response! You are a human :) </b><br><br></p>,NA,NA,00cfd83c-a801-48f5-8fd1-e02d0674b38f,2024-07-19 13:44:52 CEST
12471,0,html-button-response,2,26369,0.0-1.0,NA,"<h3>Instructions</h3>  <p style='text-align:left'>In this experiment, you will read nine conversations between two speakers, as in this example, where Candy asks a question, and Lenny responds.</p>  <p style='text-align:left'> <b>Candy</b>: <i>Is this house big? </i> <br> <b>Lenny</b>: <i> Cassandra suggested that it's huge. </i> </p>  <p style='text-align:left'> We ask you to judge how well the response fits the question. You will give your judgment on a slider marked 'totally doesn't fit' at one end and 'totally fits' at the other.</p>  <p style='text-align:left'>The experiment will take around 2 minutes, and you will be paid 40 cents.</p>  <p style='text-align:left' font size=""1"">By clicking on the button below, you agree to participate in this experiment, which is conducted by researchers at the University of Stuttgart. You may withdraw from this experiment at any time. The data collected will be anonymous and confidential. If you have any questions, you may contact the requester through Prolific's platform, or directly at st180735@stud.uni-stuttgart.de.</p>",NA,NA,00cfd83c-a801-48f5-8fd1-e02d0674b38f,2024-07-19 13:44:52 CEST
11087,58,html-slider-response,3,37458,0.0-2.0-0.0,NA,"<b>Vincent:</b><em> What did Dustin lose?</em><br> <b>Dawn:</b><em> The boss condemned Dustin, who lost his key.</em> <br> <br> How well does Dawn's response fit Vincent's question?",50,NA,00cfd83c-a801-48f5-8fd1-e02d0674b38f,2024-07-19 13:44:52 CEST
4975,100,html-slider-response,4,42434,0.0-2.0-0.1,NA,<b>Mary:</b><em> Which course did Ava take?</em><br> <b>John:</b><em> She took the French course.</em> <br> <br> How well does John's response fit Mary's question?,50,NA,00cfd83c-a801-48f5-8fd1-e02d0674b38f,2024-07-19 13:44:52 CEST
6975,0,html-slider-response,5,49410,0.0-2.0-0.2,NA,<b>Jennifer:</b><em> What does Betsy have?</em><br> <b>Robert:</b><em> She loves dancing salsa.</em> <br> <br> How well does Robert's response fit Jennifer's question?,50,NA,00cfd83c-a801-48f5-8fd1-e02d0674b38f,2024-07-19 13:44:52 CEST
7391,80,html-slider-response,6,56802,0.0-2.0-0.3,NA,"<b>Clare:</b><em> What did Lucy break?</em><br> <b>Ken:</b><em> Lucy, who broke the plate, apologized.</em> <br> <br> How well does Ken's response fit Clare's question?",50,NA,00cfd83c-a801-48f5-8fd1-e02d0674b38f,2024-07-19 13:44:52 CEST
7312,58,html-slider-response,7,64114,0.0-2.0-0.4,NA,<b>Oliver:</b><em> What did Greg buy?</em><br> <b>William:</b><em> Mia is right that he bought a new car.</em> <br> <br> How well does William's response fit Oliver's question?,50,NA,00cfd83c-a801-48f5-8fd1-e02d0674b38f,2024-07-19 13:44:52 CEST
6991,68,html-slider-response,8,71106,0.0-2.0-0.5,NA,<b>Nina:</b><em> What did Jack see?</em><br> <b>Noah:</b><em> Sophia confirmed that he saw the murder.</em> <br> <br> How well does Noah's response fit Nina's question?,50,NA,00cfd83c-a801-48f5-8fd1-e02d0674b38f,2024-07-19 13:44:52 CEST
4559,56,html-slider-response,9,75666,0.0-2.0-0.6,NA,<b>Isabel:</b><em> What did Ann steal?</em><br> <b>Alice:</b><em> David knows that she stole the money.</em> <br> <br> How well does Alice's response fit Isabel's question?,50,NA,00cfd83c-a801-48f5-8fd1-e02d0674b38f,2024-07-19 13:44:52 CEST
6128,71,html-slider-response,10,81794,0.0-2.0-0.7,NA,<b>Bob:</b><em> What did Danny eat?</em><br> <b>Nora:</b><em> Linda discovered that he ate the last cupcake.</em> <br> <br> How well does Nora's response fit Bob's question?,50,NA,00cfd83c-a801-48f5-8fd1-e02d0674b38f,2024-07-19 13:44:52 CEST
9527,20,html-slider-response,11,91322,0.0-2.0-0.8,NA,<b>Frank:</b><em> Who did Raul cheat on?</em><br> <b>Grace:</b><em> Emma confessed that he cheated on his wife.</em> <br> <br> How well does Grace's response fit Frank's question?,50,NA,00cfd83c-a801-48f5-8fd1-e02d0674b38f,2024-07-19 13:44:52 CEST
14477,"{""P0_Q0"":null,""age"":""59"",""gender"":""male"",""language"":""yes"",""amE"":""yes"",""comments"":""""}",survey,12,105845,0.0-3.0,NA,NA,NA,[],00cfd83c-a801-48f5-8fd1-e02d0674b38f,2024-07-19 13:44:52 CEST
18960,"{""Q0"":""Linda""}",survey-text,0,18992,0.0-0.0-0.0,TRUE,NA,NA,NA,d9122e99-7df8-44f1-8e5c-f703b56e1833,2024-07-19 13:45:33 CEST
3508,0,html-button-response,1,22502,0.0-0.0-3.0-0.0,NA,<p style='text-align:left'><b> Correct response! You are a human :) </b><br><br></p>,NA,NA,d9122e99-7df8-44f1-8e5c-f703b56e1833,2024-07-19 13:45:33 CEST
10213,0,html-button-response,2,32720,0.0-1.0,NA,"<h3>Instructions</h3>  <p style='text-align:left'>In this experiment, you will read nine conversations between two speakers, as in this example, where Candy asks a question, and Lenny responds.</p>  <p style='text-align:left'> <b>Candy</b>: <i>Is this house big? </i> <br> <b>Lenny</b>: <i> Cassandra suggested that it's huge. </i> </p>  <p style='text-align:left'> We ask you to judge how well the response fits the question. You will give your judgment on a slider marked 'totally doesn't fit' at one end and 'totally fits' at the other.</p>  <p style='text-align:left'>The experiment will take around 2 minutes, and you will be paid 40 cents.</p>  <p style='text-align:left' font size=""1"">By clicking on the button below, you agree to participate in this experiment, which is conducted by researchers at the University of Stuttgart. You may withdraw from this experiment at any time. The data collected will be anonymous and confidential. If you have any questions, you may contact the requester through Prolific's platform, or directly at st180735@stud.uni-stuttgart.de.</p>",NA,NA,d9122e99-7df8-44f1-8e5c-f703b56e1833,2024-07-19 13:45:33 CEST
23130,60,html-slider-response,3,55854,0.0-2.0-0.0,NA,"<b>Ken:</b><em> Who did Raul cheat on?</em><br> <b>Grace:</b><em> Raul, who cheated on his wife, feels guilty.</em> <br> <br> How well does Grace's response fit Ken's question?",50,NA,d9122e99-7df8-44f1-8e5c-f703b56e1833,2024-07-19 13:45:33 CEST
10758,55,html-slider-response,4,66615,0.0-2.0-0.1,NA,"<b>Leo:</b><em> What did Dustin lose?</em><br> <b>Isabel:</b><em> The boss condemned Dustin, who lost his key.</em> <br> <br> How well does Isabel's response fit Leo's question?",50,NA,d9122e99-7df8-44f1-8e5c-f703b56e1833,2024-07-19 13:45:33 CEST
9091,100,html-slider-response,5,75710,0.0-2.0-0.2,NA,<b>Mary:</b><em> Which course did Ava take?</em><br> <b>John:</b><em> She took the French course.</em> <br> <br> How well does John's response fit Mary's question?,50,NA,d9122e99-7df8-44f1-8e5c-f703b56e1833,2024-07-19 13:45:33 CEST
15088,100,html-slider-response,6,90802,0.0-2.0-0.3,NA,<b>Vincent:</b><em> What did Danny eat?</em><br> <b>Steven:</b><em> Linda confessed that he ate the last cupcake.</em> <br> <br> How well does Steven's response fit Vincent's question?,50,NA,d9122e99-7df8-44f1-8e5c-f703b56e1833,2024-07-19 13:45:33 CEST
10189,0,html-slider-response,7,100995,0.0-2.0-0.4,NA,<b>Jennifer:</b><em> What does Betsy have?</em><br> <b>Robert:</b><em> She loves dancing salsa.</em> <br> <br> How well does Robert's response fit Jennifer's question?,50,NA,d9122e99-7df8-44f1-8e5c-f703b56e1833,2024-07-19 13:45:33 CEST
9250,91,html-slider-response,8,110249,0.0-2.0-0.5,NA,<b>Nora:</b><em> What did Jack see?</em><br> <b>Chloe:</b><em> Sophia discovered that he saw the murder.</em> <br> <br> How well does Chloe's response fit Nora's question?,50,NA,d9122e99-7df8-44f1-8e5c-f703b56e1833,2024-07-19 13:45:33 CEST
6778,56,html-slider-response,9,117029,0.0-2.0-0.6,NA,<b>Charlie:</b><em> What did Lucy break?</em><br> <b>Bob:</b><em> Tony knows that she broke the plate.</em> <br> <br> How well does Bob's response fit Charlie's question?,50,NA,d9122e99-7df8-44f1-8e5c-f703b56e1833,2024-07-19 13:45:33 CEST
8116,60,html-slider-response,10,125147,0.0-2.0-0.7,NA,<b>Nina:</b><em> What did Greg buy?</em><br> <b>Dawn:</b><em> Mia is right that he bought a new car.</em> <br> <br> How well does Dawn's response fit Nina's question?,50,NA,d9122e99-7df8-44f1-8e5c-f703b56e1833,2024-07-19 13:45:33 CEST
6409,91,html-slider-response,11,131559,0.0-2.0-0.8,NA,<b>Frank:</b><em> What did Ann steal?</em><br> <b>William:</b><em> David confirmed that she stole the money.</em> <br> <br> How well does William's response fit Frank's question?,50,NA,d9122e99-7df8-44f1-8e5c-f703b56e1833,2024-07-19 13:45:33 CEST
28453,"{""P0_Q0"":null,""age"":""64"",""gender"":""female"",""language"":""yes"",""amE"":""yes"",""comments"":""interesting study""}",survey,12,160098,0.0-3.0,NA,NA,NA,[],d9122e99-7df8-44f1-8e5c-f703b56e1833,2024-07-19 13:45:33 CEST
10432,"{""Q0"":""Patricia""}",survey-text,0,10444,0.0-0.0-0.0,TRUE,NA,NA,NA,59f239db-2468-44a2-9485-d65ac97bbe12,2024-07-19 13:45:34 CEST
1505,0,html-button-response,1,11953,0.0-0.0-3.0-0.0,NA,<p style='text-align:left'><b> Correct response! You are a human :) </b><br><br></p>,NA,NA,59f239db-2468-44a2-9485-d65ac97bbe12,2024-07-19 13:45:34 CEST
15104,0,html-button-response,2,27058,0.0-1.0,NA,"<h3>Instructions</h3>  <p style='text-align:left'>In this experiment, you will read nine conversations between two speakers, as in this example, where Candy asks a question, and Lenny responds.</p>  <p style='text-align:left'> <b>Candy</b>: <i>Is this house big? </i> <br> <b>Lenny</b>: <i> Cassandra suggested that it's huge. </i> </p>  <p style='text-align:left'> We ask you to judge how well the response fits the question. You will give your judgment on a slider marked 'totally doesn't fit' at one end and 'totally fits' at the other.</p>  <p style='text-align:left'>The experiment will take around 2 minutes, and you will be paid 40 cents.</p>  <p style='text-align:left' font size=""1"">By clicking on the button below, you agree to participate in this experiment, which is conducted by researchers at the University of Stuttgart. You may withdraw from this experiment at any time. The data collected will be anonymous and confidential. If you have any questions, you may contact the requester through Prolific's platform, or directly at st180735@stud.uni-stuttgart.de.</p>",NA,NA,59f239db-2468-44a2-9485-d65ac97bbe12,2024-07-19 13:45:34 CEST
9528,33,html-slider-response,3,36588,0.0-2.0-0.0,NA,<b>Jennifer:</b><em> What does Betsy have?</em><br> <b>Robert:</b><em> She loves dancing salsa.</em> <br> <br> How well does Robert's response fit Jennifer's question?,50,NA,59f239db-2468-44a2-9485-d65ac97bbe12,2024-07-19 13:45:34 CEST
12733,71,html-slider-response,4,49323,0.0-2.0-0.1,NA,<b>Clare:</b><em> What did Lucy break?</em><br> <b>Isabel:</b><em> Tony knows that she broke the plate.</em> <br> <br> How well does Isabel's response fit Clare's question?,50,NA,59f239db-2468-44a2-9485-d65ac97bbe12,2024-07-19 13:45:34 CEST
6319,62,html-slider-response,5,55644,0.0-2.0-0.2,NA,<b>Dawn:</b><em> What did Greg buy?</em><br> <b>Ken:</b><em> Mia confessed that he bought a new car.</em> <br> <br> How well does Ken's response fit Dawn's question?,50,NA,59f239db-2468-44a2-9485-d65ac97bbe12,2024-07-19 13:45:34 CEST
5839,61,html-slider-response,6,61486,0.0-2.0-0.3,NA,"<b>Charlie:</b><em> What did Danny eat?</em><br> <b>Nora:</b><em> Danny, who ate the last cupcake, has a sweet tooth.</em> <br> <br> How well does Nora's response fit Charlie's question?",50,NA,59f239db-2468-44a2-9485-d65ac97bbe12,2024-07-19 13:45:34 CEST
6585,76,html-slider-response,7,68073,0.0-2.0-0.4,NA,<b>Steven:</b><em> Who did Raul cheat on?</em><br> <b>Charlotte:</b><em> Emma confirmed that he cheated on his wife.</em> <br> <br> How well does Charlotte's response fit Steven's question?,50,NA,59f239db-2468-44a2-9485-d65ac97bbe12,2024-07-19 13:45:34 CEST
7538,63,html-slider-response,8,75613,0.0-2.0-0.5,NA,"<b>Leo:</b><em> What did Jack see?</em><br> <b>Bob:</b><em> The police found Jack, who saw the murder.</em> <br> <br> How well does Bob's response fit Leo's question?",50,NA,59f239db-2468-44a2-9485-d65ac97bbe12,2024-07-19 13:45:34 CEST
5477,95,html-slider-response,9,81092,0.0-2.0-0.6,NA,<b>Mary:</b><em> Which course did Ava take?</em><br> <b>John:</b><em> She took the French course.</em> <br> <br> How well does John's response fit Mary's question?,50,NA,59f239db-2468-44a2-9485-d65ac97bbe12,2024-07-19 13:45:34 CEST
4020,72,html-slider-response,10,85114,0.0-2.0-0.7,NA,<b>Chloe:</b><em> What did Ann steal?</em><br> <b>Oliver:</b><em> David is right that she stole the money.</em> <br> <br> How well does Oliver's response fit Chloe's question?,50,NA,59f239db-2468-44a2-9485-d65ac97bbe12,2024-07-19 13:45:34 CEST
5647,67,html-slider-response,11,90762,0.0-2.0-0.8,NA,<b>Noah:</b><em> What did Dustin lose?</em><br> <b>Alice:</b><em> Patricia discovered that he lost his key.</em> <br> <br> How well does Alice's response fit Noah's question?,50,NA,59f239db-2468-44a2-9485-d65ac97bbe12,2024-07-19 13:45:34 CEST
12910,"{""P0_Q0"":null,""age"":""52"",""gender"":""male"",""language"":""yes"",""amE"":""yes"",""comments"":""""}",survey,12,103705,0.0-3.0,NA,NA,NA,[],59f239db-2468-44a2-9485-d65ac97bbe12,2024-07-19 13:45:34 CEST
4748,"{""Q0"":""Sarah""}",survey-text,0,4768,0.0-0.0-0.0,TRUE,NA,NA,NA,6b6b4855-bda3-42d0-85f9-0a9f3f33f85a,2024-07-19 13:46:12 CEST
1093,0,html-button-response,1,5862,0.0-0.0-3.0-0.0,NA,<p style='text-align:left'><b> Correct response! You are a human :) </b><br><br></p>,NA,NA,6b6b4855-bda3-42d0-85f9-0a9f3f33f85a,2024-07-19 13:46:12 CEST
4078,0,html-button-response,2,9942,0.0-1.0,NA,"<h3>Instructions</h3>  <p style='text-align:left'>In this experiment, you will read nine conversations between two speakers, as in this example, where Candy asks a question, and Lenny responds.</p>  <p style='text-align:left'> <b>Candy</b>: <i>Is this house big? </i> <br> <b>Lenny</b>: <i> Cassandra suggested that it's huge. </i> </p>  <p style='text-align:left'> We ask you to judge how well the response fits the question. You will give your judgment on a slider marked 'totally doesn't fit' at one end and 'totally fits' at the other.</p>  <p style='text-align:left'>The experiment will take around 2 minutes, and you will be paid 40 cents.</p>  <p style='text-align:left' font size=""1"">By clicking on the button below, you agree to participate in this experiment, which is conducted by researchers at the University of Stuttgart. You may withdraw from this experiment at any time. The data collected will be anonymous and confidential. If you have any questions, you may contact the requester through Prolific's platform, or directly at st180735@stud.uni-stuttgart.de.</p>",NA,NA,6b6b4855-bda3-42d0-85f9-0a9f3f33f85a,2024-07-19 13:46:12 CEST
6975,100,html-slider-response,3,16918,0.0-2.0-0.0,NA,<b>Nina:</b><em> What did Greg buy?</em><br> <b>Grace:</b><em> Mia confirmed that he bought a new car.</em> <br> <br> How well does Grace's response fit Nina's question?,50,NA,6b6b4855-bda3-42d0-85f9-0a9f3f33f85a,2024-07-19 13:46:12 CEST
2855,100,html-slider-response,4,19774,0.0-2.0-0.1,NA,"<b>Chloe:</b><em> What did Lucy break?</em><br> <b>Leo:</b><em> The chef scolded Lucy, who broke the plate.</em> <br> <br> How well does Leo's response fit Chloe's question?",50,NA,6b6b4855-bda3-42d0-85f9-0a9f3f33f85a,2024-07-19 13:46:12 CEST
5087,69,html-slider-response,5,24862,0.0-2.0-0.2,NA,<b>William:</b><em> What did Danny eat?</em><br> <b>Vincent:</b><em> Linda discovered that he ate the last cupcake.</em> <br> <br> How well does Vincent's response fit William's question?,50,NA,6b6b4855-bda3-42d0-85f9-0a9f3f33f85a,2024-07-19 13:46:12 CEST
8135,52,html-slider-response,6,32997,0.0-2.0-0.3,NA,<b>Isabel:</b><em> What did Jack see?</em><br> <b>Alice:</b><em> Sophia confessed that he saw the murder.</em> <br> <br> How well does Alice's response fit Isabel's question?,50,NA,6b6b4855-bda3-42d0-85f9-0a9f3f33f85a,2024-07-19 13:46:12 CEST
2912,100,html-slider-response,7,35910,0.0-2.0-0.4,NA,<b>Mary:</b><em> Which course did Ava take?</em><br> <b>John:</b><em> She took the French course.</em> <br> <br> How well does John's response fit Mary's question?,50,NA,6b6b4855-bda3-42d0-85f9-0a9f3f33f85a,2024-07-19 13:46:12 CEST
3719,0,html-slider-response,8,39630,0.0-2.0-0.5,NA,<b>Jennifer:</b><em> What does Betsy have?</em><br> <b>Robert:</b><em> She loves dancing salsa.</em> <br> <br> How well does Robert's response fit Jennifer's question?,50,NA,6b6b4855-bda3-42d0-85f9-0a9f3f33f85a,2024-07-19 13:46:12 CEST
5751,42,html-slider-response,9,45382,0.0-2.0-0.6,NA,"<b>Charlotte:</b><em> What did Ann steal?</em><br> <b>Steven:</b><em> Ann, who stole the money, was caught by the police.</em> <br> <br> How well does Steven's response fit Charlotte's question?",50,NA,6b6b4855-bda3-42d0-85f9-0a9f3f33f85a,2024-07-19 13:46:12 CEST
2799,38,html-slider-response,10,48182,0.0-2.0-0.7,NA,<b>Bob:</b><em> What did Dustin lose?</em><br> <b>Oliver:</b><em> Patricia is right that he lost his key.</em> <br> <br> How well does Oliver's response fit Bob's question?,50,NA,6b6b4855-bda3-42d0-85f9-0a9f3f33f85a,2024-07-19 13:46:12 CEST
3071,23,html-slider-response,11,51254,0.0-2.0-0.8,NA,<b>Frank:</b><em> Who did Raul cheat on?</em><br> <b>Clare:</b><em> Emma knows that he cheated on his wife.</em> <br> <br> How well does Clare's response fit Frank's question?,50,NA,6b6b4855-bda3-42d0-85f9-0a9f3f33f85a,2024-07-19 13:46:12 CEST
7578,"{""P0_Q0"":null,""age"":""32"",""gender"":""male"",""language"":""yes"",""amE"":""yes"",""comments"":""""}",survey,12,58880,0.0-3.0,NA,NA,NA,[],6b6b4855-bda3-42d0-85f9-0a9f3f33f85a,2024-07-19 13:46:12 CEST
21913,"{""Q0"":""patricia""}",survey-text,0,21964,0.0-0.0-0.0,TRUE,NA,NA,NA,5bf9fb50-9197-4be6-9785-74dac241f1c4,2024-07-19 13:46:33 CEST
3208,0,html-button-response,1,25181,0.0-0.0-3.0-0.0,NA,<p style='text-align:left'><b> Correct response! You are a human :) </b><br><br></p>,NA,NA,5bf9fb50-9197-4be6-9785-74dac241f1c4,2024-07-19 13:46:33 CEST
11665,0,html-button-response,2,36852,0.0-1.0,NA,"<h3>Instructions</h3>  <p style='text-align:left'>In this experiment, you will read nine conversations between two speakers, as in this example, where Candy asks a question, and Lenny responds.</p>  <p style='text-align:left'> <b>Candy</b>: <i>Is this house big? </i> <br> <b>Lenny</b>: <i> Cassandra suggested that it's huge. </i> </p>  <p style='text-align:left'> We ask you to judge how well the response fits the question. You will give your judgment on a slider marked 'totally doesn't fit' at one end and 'totally fits' at the other.</p>  <p style='text-align:left'>The experiment will take around 2 minutes, and you will be paid 40 cents.</p>  <p style='text-align:left' font size=""1"">By clicking on the button below, you agree to participate in this experiment, which is conducted by researchers at the University of Stuttgart. You may withdraw from this experiment at any time. The data collected will be anonymous and confidential. If you have any questions, you may contact the requester through Prolific's platform, or directly at st180735@stud.uni-stuttgart.de.</p>",NA,NA,5bf9fb50-9197-4be6-9785-74dac241f1c4,2024-07-19 13:46:33 CEST
12051,100,html-slider-response,3,48909,0.0-2.0-0.0,NA,<b>Mary:</b><em> Which course did Ava take?</em><br> <b>John:</b><em> She took the French course.</em> <br> <br> How well does John's response fit Mary's question?,50,NA,5bf9fb50-9197-4be6-9785-74dac241f1c4,2024-07-19 13:46:33 CEST
12005,0,html-slider-response,4,60919,0.0-2.0-0.1,NA,<b>Ken:</b><em> Who did Raul cheat on?</em><br> <b>Grace:</b><em> Emma knows that he cheated on his wife.</em> <br> <br> How well does Grace's response fit Ken's question?,50,NA,5bf9fb50-9197-4be6-9785-74dac241f1c4,2024-07-19 13:46:33 CEST
9173,0,html-slider-response,5,70098,0.0-2.0-0.2,NA,<b>Jennifer:</b><em> What does Betsy have?</em><br> <b>Robert:</b><em> She loves dancing salsa.</em> <br> <br> How well does Robert's response fit Jennifer's question?,50,NA,5bf9fb50-9197-4be6-9785-74dac241f1c4,2024-07-19 13:46:33 CEST
8951,0,html-slider-response,6,79057,0.0-2.0-0.3,NA,<b>Nina:</b><em> What did Lucy break?</em><br> <b>Oliver:</b><em> Tony discovered that she broke the plate.</em> <br> <br> How well does Oliver's response fit Nina's question?,50,NA,5bf9fb50-9197-4be6-9785-74dac241f1c4,2024-07-19 13:46:33 CEST
10048,67,html-slider-response,7,89110,0.0-2.0-0.4,NA,<b>Noah:</b><em> What did Ann steal?</em><br> <b>Charlie:</b><em> David confirmed that she stole the money.</em> <br> <br> How well does Charlie's response fit Noah's question?,50,NA,5bf9fb50-9197-4be6-9785-74dac241f1c4,2024-07-19 13:46:33 CEST
26598,3,html-slider-response,8,115712,0.0-2.0-0.5,NA,<b>Isabel:</b><em> What did Danny eat?</em><br> <b>Leo:</b><em> Linda is right that he ate the last cupcake.</em> <br> <br> How well does Leo's response fit Isabel's question?,50,NA,5bf9fb50-9197-4be6-9785-74dac241f1c4,2024-07-19 13:46:33 CEST
10915,22,html-slider-response,9,126631,0.0-2.0-0.6,NA,<b>Nora:</b><em> What did Dustin lose?</em><br> <b>Chloe:</b><em> Patricia confessed that he lost his key.</em> <br> <br> How well does Chloe's response fit Nora's question?,50,NA,5bf9fb50-9197-4be6-9785-74dac241f1c4,2024-07-19 13:46:33 CEST
6658,100,html-slider-response,10,133293,0.0-2.0-0.7,NA,"<b>Dawn:</b><em> What did Jack see?</em><br> <b>William:</b><em> Jack, who saw the murder, ran away.</em> <br> <br> How well does William's response fit Dawn's question?",50,NA,5bf9fb50-9197-4be6-9785-74dac241f1c4,2024-07-19 13:46:33 CEST
10927,5,html-slider-response,11,144224,0.0-2.0-0.8,NA,"<b>Frank:</b><em> What did Greg buy?</em><br> <b>Clare:</b><em> The neighbor envies Greg, who bought a new car.</em> <br> <br> How well does Clare's response fit Frank's question?",50,NA,5bf9fb50-9197-4be6-9785-74dac241f1c4,2024-07-19 13:46:33 CEST
29705,"{""P0_Q0"":null,""age"":""32"",""gender"":""male"",""language"":""yes"",""amE"":""yes"",""comments"":""nice study""}",survey,12,174169,0.0-3.0,NA,NA,NA,[],5bf9fb50-9197-4be6-9785-74dac241f1c4,2024-07-19 13:46:33 CEST
7978,"{""Q0"":""Mary""}",survey-text,0,8011,0.0-0.0-0.0,TRUE,NA,NA,NA,057fab20-43d5-4ccb-a1a3-1521b9bfcddc,2024-07-19 13:47:48 CEST
2119,0,html-button-response,1,10139,0.0-0.0-3.0-0.0,NA,<p style='text-align:left'><b> Correct response! You are a human :) </b><br><br></p>,NA,NA,057fab20-43d5-4ccb-a1a3-1521b9bfcddc,2024-07-19 13:47:48 CEST
11695,0,html-button-response,2,21838,0.0-1.0,NA,"<h3>Instructions</h3>  <p style='text-align:left'>In this experiment, you will read nine conversations between two speakers, as in this example, where Candy asks a question, and Lenny responds.</p>  <p style='text-align:left'> <b>Candy</b>: <i>Is this house big? </i> <br> <b>Lenny</b>: <i> Cassandra suggested that it's huge. </i> </p>  <p style='text-align:left'> We ask you to judge how well the response fits the question. You will give your judgment on a slider marked 'totally doesn't fit' at one end and 'totally fits' at the other.</p>  <p style='text-align:left'>The experiment will take around 2 minutes, and you will be paid 40 cents.</p>  <p style='text-align:left' font size=""1"">By clicking on the button below, you agree to participate in this experiment, which is conducted by researchers at the University of Stuttgart. You may withdraw from this experiment at any time. The data collected will be anonymous and confidential. If you have any questions, you may contact the requester through Prolific's platform, or directly at st180735@stud.uni-stuttgart.de.</p>",NA,NA,057fab20-43d5-4ccb-a1a3-1521b9bfcddc,2024-07-19 13:47:48 CEST
10011,15,html-slider-response,3,31854,0.0-2.0-0.0,NA,"<b>Ken:</b><em> What did Danny eat?</em><br> <b>Charlotte:</b><em> Lucy forgave Danny, who ate the last cupcake.</em> <br> <br> How well does Charlotte's response fit Ken's question?",50,NA,057fab20-43d5-4ccb-a1a3-1521b9bfcddc,2024-07-19 13:47:48 CEST
6025,70,html-slider-response,4,37883,0.0-2.0-0.1,NA,"<b>Leo:</b><em> What did Dustin lose?</em><br> <b>Charlie:</b><em> Dustin, who lost his key, feels upset.</em> <br> <br> How well does Charlie's response fit Leo's question?",50,NA,057fab20-43d5-4ccb-a1a3-1521b9bfcddc,2024-07-19 13:47:48 CEST
5040,99,html-slider-response,5,42927,0.0-2.0-0.2,NA,<b>Noah:</b><em> What did Lucy break?</em><br> <b>Nina:</b><em> Tony confessed that she broke the plate.</em> <br> <br> How well does Nina's response fit Noah's question?,50,NA,057fab20-43d5-4ccb-a1a3-1521b9bfcddc,2024-07-19 13:47:48 CEST
7696,64,html-slider-response,6,50626,0.0-2.0-0.3,NA,<b>Grace:</b><em> Who did Raul cheat on?</em><br> <b>Clare:</b><em> Emma knows that he cheated on his wife.</em> <br> <br> How well does Clare's response fit Grace's question?,50,NA,057fab20-43d5-4ccb-a1a3-1521b9bfcddc,2024-07-19 13:47:48 CEST
5314,83,html-slider-response,7,55950,0.0-2.0-0.4,NA,<b>Bob:</b><em> What did Greg buy?</em><br> <b>Chloe:</b><em> Mia discovered that he bought a new car.</em> <br> <br> How well does Chloe's response fit Bob's question?,50,NA,057fab20-43d5-4ccb-a1a3-1521b9bfcddc,2024-07-19 13:47:48 CEST
5017,77,html-slider-response,8,60971,0.0-2.0-0.5,NA,<b>Alice:</b><em> What did Jack see?</em><br> <b>Frank:</b><em> Sophia is right that he saw the murder.</em> <br> <br> How well does Frank's response fit Alice's question?,50,NA,057fab20-43d5-4ccb-a1a3-1521b9bfcddc,2024-07-19 13:47:48 CEST
4469,100,html-slider-response,9,65442,0.0-2.0-0.6,NA,<b>Mary:</b><em> Which course did Ava take?</em><br> <b>John:</b><em> She took the French course.</em> <br> <br> How well does John's response fit Mary's question?,50,NA,057fab20-43d5-4ccb-a1a3-1521b9bfcddc,2024-07-19 13:47:48 CEST
5365,91,html-slider-response,10,70809,0.0-2.0-0.7,NA,<b>Oliver:</b><em> What did Ann steal?</em><br> <b>Vincent:</b><em> David confirmed that she stole the money.</em> <br> <br> How well does Vincent's response fit Oliver's question?,50,NA,057fab20-43d5-4ccb-a1a3-1521b9bfcddc,2024-07-19 13:47:48 CEST
6518,0,html-slider-response,11,77329,0.0-2.0-0.8,NA,<b>Jennifer:</b><em> What does Betsy have?</em><br> <b>Robert:</b><em> She loves dancing salsa.</em> <br> <br> How well does Robert's response fit Jennifer's question?,50,NA,057fab20-43d5-4ccb-a1a3-1521b9bfcddc,2024-07-19 13:47:48 CEST
16837,"{""P0_Q0"":null,""age"":""36"",""gender"":""female"",""language"":""yes"",""amE"":""yes"",""comments"":""None""}",survey,12,94404,0.0-3.0,NA,NA,NA,[],057fab20-43d5-4ccb-a1a3-1521b9bfcddc,2024-07-19 13:47:48 CEST
20817,"{""Q0"":""Barbara""}",survey-text,0,20831,0.0-0.0-0.0,TRUE,NA,NA,NA,423bafe5-1805-4efb-9198-b3a1d4941344,2024-07-19 13:49:12 CEST
4235,0,html-button-response,1,25067,0.0-0.0-3.0-0.0,NA,<p style='text-align:left'><b> Correct response! You are a human :) </b><br><br></p>,NA,NA,423bafe5-1805-4efb-9198-b3a1d4941344,2024-07-19 13:49:12 CEST
23031,0,html-button-response,2,48099,0.0-1.0,NA,"<h3>Instructions</h3>  <p style='text-align:left'>In this experiment, you will read nine conversations between two speakers, as in this example, where Candy asks a question, and Lenny responds.</p>  <p style='text-align:left'> <b>Candy</b>: <i>Is this house big? </i> <br> <b>Lenny</b>: <i> Cassandra suggested that it's huge. </i> </p>  <p style='text-align:left'> We ask you to judge how well the response fits the question. You will give your judgment on a slider marked 'totally doesn't fit' at one end and 'totally fits' at the other.</p>  <p style='text-align:left'>The experiment will take around 2 minutes, and you will be paid 40 cents.</p>  <p style='text-align:left' font size=""1"">By clicking on the button below, you agree to participate in this experiment, which is conducted by researchers at the University of Stuttgart. You may withdraw from this experiment at any time. The data collected will be anonymous and confidential. If you have any questions, you may contact the requester through Prolific's platform, or directly at st180735@stud.uni-stuttgart.de.</p>",NA,NA,423bafe5-1805-4efb-9198-b3a1d4941344,2024-07-19 13:49:12 CEST
18441,100,html-slider-response,3,66541,0.0-2.0-0.0,NA,<b>Mary:</b><em> Which course did Ava take?</em><br> <b>John:</b><em> She took the French course.</em> <br> <br> How well does John's response fit Mary's question?,50,NA,423bafe5-1805-4efb-9198-b3a1d4941344,2024-07-19 13:49:12 CEST
17444,82,html-slider-response,4,83987,0.0-2.0-0.1,NA,<b>Vincent:</b><em> What did Jack see?</em><br> <b>Leo:</b><em> Sophia knows that he saw the murder.</em> <br> <br> How well does Leo's response fit Vincent's question?,50,NA,423bafe5-1805-4efb-9198-b3a1d4941344,2024-07-19 13:49:12 CEST
11609,0,html-slider-response,5,95597,0.0-2.0-0.2,NA,<b>Jennifer:</b><em> What does Betsy have?</em><br> <b>Robert:</b><em> She loves dancing salsa.</em> <br> <br> How well does Robert's response fit Jennifer's question?,50,NA,423bafe5-1805-4efb-9198-b3a1d4941344,2024-07-19 13:49:12 CEST
17901,82,html-slider-response,6,113499,0.0-2.0-0.3,NA,"<b>Ken:</b><em> What did Lucy break?</em><br> <b>Nora:</b><em> The chef scolded Lucy, who broke the plate.</em> <br> <br> How well does Nora's response fit Ken's question?",50,NA,423bafe5-1805-4efb-9198-b3a1d4941344,2024-07-19 13:49:12 CEST
14848,60,html-slider-response,7,128348,0.0-2.0-0.4,NA,"<b>Oliver:</b><em> What did Dustin lose?</em><br> <b>Bob:</b><em> Dustin, who lost his key, feels upset.</em> <br> <br> How well does Bob's response fit Oliver's question?",50,NA,423bafe5-1805-4efb-9198-b3a1d4941344,2024-07-19 13:49:12 CEST
11294,42,html-slider-response,8,139643,0.0-2.0-0.5,NA,<b>William:</b><em> What did Ann steal?</em><br> <b>Isabel:</b><em> David is right that she stole the money.</em> <br> <br> How well does Isabel's response fit William's question?,50,NA,423bafe5-1805-4efb-9198-b3a1d4941344,2024-07-19 13:49:12 CEST
9203,96,html-slider-response,9,148846,0.0-2.0-0.6,NA,<b>Frank:</b><em> What did Danny eat?</em><br> <b>Charlotte:</b><em> Linda confirmed that he ate the last cupcake.</em> <br> <br> How well does Charlotte's response fit Frank's question?,50,NA,423bafe5-1805-4efb-9198-b3a1d4941344,2024-07-19 13:49:12 CEST
15899,88,html-slider-response,10,164746,0.0-2.0-0.7,NA,<b>Charlie:</b><em> Who did Raul cheat on?</em><br> <b>Clare:</b><em> Emma confessed that he cheated on his wife.</em> <br> <br> How well does Clare's response fit Charlie's question?,50,NA,423bafe5-1805-4efb-9198-b3a1d4941344,2024-07-19 13:49:12 CEST
10377,94,html-slider-response,11,175125,0.0-2.0-0.8,NA,<b>Alice:</b><em> What did Greg buy?</em><br> <b>Noah:</b><em> Mia discovered that he bought a new car.</em> <br> <br> How well does Noah's response fit Alice's question?,50,NA,423bafe5-1805-4efb-9198-b3a1d4941344,2024-07-19 13:49:12 CEST
13979,"{""P0_Q0"":null,""age"":""67"",""gender"":""male"",""language"":""yes"",""amE"":""yes"",""comments"":""""}",survey,12,189145,0.0-3.0,NA,NA,NA,[],423bafe5-1805-4efb-9198-b3a1d4941344,2024-07-19 13:49:12 CEST
12907,"{""Q0"":""Jessica""}",survey-text,0,12918,0.0-0.0-0.0,TRUE,NA,NA,NA,587cbe0e-72f2-4ad3-9f96-95a0bcca317b,2024-07-19 13:49:22 CEST
19483,0,html-button-response,1,32402,0.0-0.0-3.0-0.0,NA,<p style='text-align:left'><b> Correct response! You are a human :) </b><br><br></p>,NA,NA,587cbe0e-72f2-4ad3-9f96-95a0bcca317b,2024-07-19 13:49:22 CEST
6114,0,html-button-response,2,38518,0.0-1.0,NA,"<h3>Instructions</h3>  <p style='text-align:left'>In this experiment, you will read nine conversations between two speakers, as in this example, where Candy asks a question, and Lenny responds.</p>  <p style='text-align:left'> <b>Candy</b>: <i>Is this house big? </i> <br> <b>Lenny</b>: <i> Cassandra suggested that it's huge. </i> </p>  <p style='text-align:left'> We ask you to judge how well the response fits the question. You will give your judgment on a slider marked 'totally doesn't fit' at one end and 'totally fits' at the other.</p>  <p style='text-align:left'>The experiment will take around 2 minutes, and you will be paid 40 cents.</p>  <p style='text-align:left' font size=""1"">By clicking on the button below, you agree to participate in this experiment, which is conducted by researchers at the University of Stuttgart. You may withdraw from this experiment at any time. The data collected will be anonymous and confidential. If you have any questions, you may contact the requester through Prolific's platform, or directly at st180735@stud.uni-stuttgart.de.</p>",NA,NA,587cbe0e-72f2-4ad3-9f96-95a0bcca317b,2024-07-19 13:49:22 CEST
17691,73,html-slider-response,3,56210,0.0-2.0-0.0,NA,<b>Isabel:</b><em> What did Greg buy?</em><br> <b>Vincent:</b><em> Mia knows that he bought a new car.</em> <br> <br> How well does Vincent's response fit Isabel's question?,50,NA,587cbe0e-72f2-4ad3-9f96-95a0bcca317b,2024-07-19 13:49:22 CEST
5606,54,html-slider-response,4,61807,0.0-2.0-0.1,NA,<b>Charlie:</b><em> What did Dustin lose?</em><br> <b>Steven:</b><em> Patricia is right that he lost his key.</em> <br> <br> How well does Steven's response fit Charlie's question?,50,NA,587cbe0e-72f2-4ad3-9f96-95a0bcca317b,2024-07-19 13:49:22 CEST
4804,75,html-slider-response,5,66612,0.0-2.0-0.2,NA,"<b>Leo:</b><em> Who did Raul cheat on?</em><br> <b>Clare:</b><em> Ann criticized Raul, who cheated on his wife.</em> <br> <br> How well does Clare's response fit Leo's question?",50,NA,587cbe0e-72f2-4ad3-9f96-95a0bcca317b,2024-07-19 13:49:22 CEST
3514,94,html-slider-response,6,70127,0.0-2.0-0.3,NA,<b>Grace:</b><em> What did Ann steal?</em><br> <b>Ken:</b><em> David confirmed that she stole the money.</em> <br> <br> How well does Ken's response fit Grace's question?,50,NA,587cbe0e-72f2-4ad3-9f96-95a0bcca317b,2024-07-19 13:49:22 CEST
4098,100,html-slider-response,7,74226,0.0-2.0-0.4,NA,<b>Mary:</b><em> Which course did Ava take?</em><br> <b>John:</b><em> She took the French course.</em> <br> <br> How well does John's response fit Mary's question?,50,NA,587cbe0e-72f2-4ad3-9f96-95a0bcca317b,2024-07-19 13:49:22 CEST
11563,82,html-slider-response,8,85791,0.0-2.0-0.5,NA,<b>Oliver:</b><em> What did Danny eat?</em><br> <b>Frank:</b><em> Linda discovered that he ate the last cupcake.</em> <br> <br> How well does Frank's response fit Oliver's question?,50,NA,587cbe0e-72f2-4ad3-9f96-95a0bcca317b,2024-07-19 13:49:22 CEST
3528,75,html-slider-response,9,89319,0.0-2.0-0.6,NA,"<b>Chloe:</b><em> What did Lucy break?</em><br> <b>Charlotte:</b><em> Lucy, who broke the plate, apologized.</em> <br> <br> How well does Charlotte's response fit Chloe's question?",50,NA,587cbe0e-72f2-4ad3-9f96-95a0bcca317b,2024-07-19 13:49:22 CEST
3734,92,html-slider-response,10,93054,0.0-2.0-0.7,NA,<b>Noah:</b><em> What did Jack see?</em><br> <b>William:</b><em> Sophia confessed that he saw the murder.</em> <br> <br> How well does William's response fit Noah's question?,50,NA,587cbe0e-72f2-4ad3-9f96-95a0bcca317b,2024-07-19 13:49:22 CEST
6461,0,html-slider-response,11,99516,0.0-2.0-0.8,NA,<b>Jennifer:</b><em> What does Betsy have?</em><br> <b>Robert:</b><em> She loves dancing salsa.</em> <br> <br> How well does Robert's response fit Jennifer's question?,50,NA,587cbe0e-72f2-4ad3-9f96-95a0bcca317b,2024-07-19 13:49:22 CEST
28848,"{""P0_Q0"":null,""age"":""53"",""gender"":""female"",""language"":""yes"",""amE"":""yes"",""comments"":""I wasn't sure if these were verbal responses because some, although correct, wouldn't be said out loud in the way written""}",survey,12,128413,0.0-3.0,NA,NA,NA,[],587cbe0e-72f2-4ad3-9f96-95a0bcca317b,2024-07-19 13:49:22 CEST
18921,"{""Q0"":""Elizabeth""}",survey-text,0,18930,0.0-0.0-0.0,TRUE,NA,NA,NA,e000a438-180d-43bf-b242-e55bf9ae23d8,2024-07-19 13:50:51 CEST
2198,0,html-button-response,1,21131,0.0-0.0-3.0-0.0,NA,<p style='text-align:left'><b> Correct response! You are a human :) </b><br><br></p>,NA,NA,e000a438-180d-43bf-b242-e55bf9ae23d8,2024-07-19 13:50:51 CEST
14825,0,html-button-response,2,35958,0.0-1.0,NA,"<h3>Instructions</h3>  <p style='text-align:left'>In this experiment, you will read nine conversations between two speakers, as in this example, where Candy asks a question, and Lenny responds.</p>  <p style='text-align:left'> <b>Candy</b>: <i>Is this house big? </i> <br> <b>Lenny</b>: <i> Cassandra suggested that it's huge. </i> </p>  <p style='text-align:left'> We ask you to judge how well the response fits the question. You will give your judgment on a slider marked 'totally doesn't fit' at one end and 'totally fits' at the other.</p>  <p style='text-align:left'>The experiment will take around 2 minutes, and you will be paid 40 cents.</p>  <p style='text-align:left' font size=""1"">By clicking on the button below, you agree to participate in this experiment, which is conducted by researchers at the University of Stuttgart. You may withdraw from this experiment at any time. The data collected will be anonymous and confidential. If you have any questions, you may contact the requester through Prolific's platform, or directly at st180735@stud.uni-stuttgart.de.</p>",NA,NA,e000a438-180d-43bf-b242-e55bf9ae23d8,2024-07-19 13:50:51 CEST
18832,76,html-slider-response,3,54793,0.0-2.0-0.0,NA,"<b>Frank:</b><em> What did Ann steal?</em><br> <b>Ken:</b><em> Ann, who stole the money, was caught by the police.</em> <br> <br> How well does Ken's response fit Frank's question?",50,NA,e000a438-180d-43bf-b242-e55bf9ae23d8,2024-07-19 13:50:51 CEST
11785,71,html-slider-response,4,66582,0.0-2.0-0.1,NA,<b>Alice:</b><em> What did Greg buy?</em><br> <b>Dawn:</b><em> Mia knows that he bought a new car.</em> <br> <br> How well does Dawn's response fit Alice's question?,50,NA,e000a438-180d-43bf-b242-e55bf9ae23d8,2024-07-19 13:50:51 CEST
15535,36,html-slider-response,5,82119,0.0-2.0-0.2,NA,<b>Grace:</b><em> What did Jack see?</em><br> <b>Clare:</b><em> Sophia confessed that he saw the murder.</em> <br> <br> How well does Clare's response fit Grace's question?,50,NA,e000a438-180d-43bf-b242-e55bf9ae23d8,2024-07-19 13:50:51 CEST
14308,55,html-slider-response,6,96429,0.0-2.0-0.3,NA,"<b>Noah:</b><em> Who did Raul cheat on?</em><br> <b>Isabel:</b><em> Ann criticized Raul, who cheated on his wife.</em> <br> <br> How well does Isabel's response fit Noah's question?",50,NA,e000a438-180d-43bf-b242-e55bf9ae23d8,2024-07-19 13:50:51 CEST
15399,92,html-slider-response,7,111830,0.0-2.0-0.4,NA,<b>Mary:</b><em> Which course did Ava take?</em><br> <b>John:</b><em> She took the French course.</em> <br> <br> How well does John's response fit Mary's question?,50,NA,e000a438-180d-43bf-b242-e55bf9ae23d8,2024-07-19 13:50:51 CEST
10684,77,html-slider-response,8,122517,0.0-2.0-0.5,NA,<b>Oliver:</b><em> What did Lucy break?</em><br> <b>Steven:</b><em> Tony confirmed that she broke the plate.</em> <br> <br> How well does Steven's response fit Oliver's question?,50,NA,e000a438-180d-43bf-b242-e55bf9ae23d8,2024-07-19 13:50:51 CEST
11733,0,html-slider-response,9,134252,0.0-2.0-0.6,NA,<b>Jennifer:</b><em> What does Betsy have?</em><br> <b>Robert:</b><em> She loves dancing salsa.</em> <br> <br> How well does Robert's response fit Jennifer's question?,50,NA,e000a438-180d-43bf-b242-e55bf9ae23d8,2024-07-19 13:50:51 CEST
8841,42,html-slider-response,10,143094,0.0-2.0-0.7,NA,<b>Charlotte:</b><em> What did Danny eat?</em><br> <b>Bob:</b><em> Linda is right that he ate the last cupcake.</em> <br> <br> How well does Bob's response fit Charlotte's question?,50,NA,e000a438-180d-43bf-b242-e55bf9ae23d8,2024-07-19 13:50:51 CEST
9773,53,html-slider-response,11,152869,0.0-2.0-0.8,NA,<b>Leo:</b><em> What did Dustin lose?</em><br> <b>Vincent:</b><em> Patricia discovered that he lost his key.</em> <br> <br> How well does Vincent's response fit Leo's question?,50,NA,e000a438-180d-43bf-b242-e55bf9ae23d8,2024-07-19 13:50:51 CEST
43075,"{""P0_Q0"":null,""age"":""41"",""gender"":""female"",""language"":""yes"",""amE"":""yes"",""comments"":""""}",survey,12,196002,0.0-3.0,NA,NA,NA,[],e000a438-180d-43bf-b242-e55bf9ae23d8,2024-07-19 13:50:51 CEST
12014,"{""Q0"":""jessica""}",survey-text,0,12050,0.0-0.0-0.0,TRUE,NA,NA,NA,86693fda-e395-43d9-8e38-8a070c1bd71d,2024-07-19 13:51:23 CEST
3324,0,html-button-response,1,15381,0.0-0.0-3.0-0.0,NA,<p style='text-align:left'><b> Correct response! You are a human :) </b><br><br></p>,NA,NA,86693fda-e395-43d9-8e38-8a070c1bd71d,2024-07-19 13:51:23 CEST
20583,0,html-button-response,2,35968,0.0-1.0,NA,"<h3>Instructions</h3>  <p style='text-align:left'>In this experiment, you will read nine conversations between two speakers, as in this example, where Candy asks a question, and Lenny responds.</p>  <p style='text-align:left'> <b>Candy</b>: <i>Is this house big? </i> <br> <b>Lenny</b>: <i> Cassandra suggested that it's huge. </i> </p>  <p style='text-align:left'> We ask you to judge how well the response fits the question. You will give your judgment on a slider marked 'totally doesn't fit' at one end and 'totally fits' at the other.</p>  <p style='text-align:left'>The experiment will take around 2 minutes, and you will be paid 40 cents.</p>  <p style='text-align:left' font size=""1"">By clicking on the button below, you agree to participate in this experiment, which is conducted by researchers at the University of Stuttgart. You may withdraw from this experiment at any time. The data collected will be anonymous and confidential. If you have any questions, you may contact the requester through Prolific's platform, or directly at st180735@stud.uni-stuttgart.de.</p>",NA,NA,86693fda-e395-43d9-8e38-8a070c1bd71d,2024-07-19 13:51:23 CEST
7067,100,html-slider-response,3,43042,0.0-2.0-0.0,NA,<b>Mary:</b><em> Which course did Ava take?</em><br> <b>John:</b><em> She took the French course.</em> <br> <br> How well does John's response fit Mary's question?,50,NA,86693fda-e395-43d9-8e38-8a070c1bd71d,2024-07-19 13:51:23 CEST
9032,98,html-slider-response,4,52078,0.0-2.0-0.1,NA,"<b>Charlotte:</b><em> What did Jack see?</em><br> <b>William:</b><em> The police found Jack, who saw the murder.</em> <br> <br> How well does William's response fit Charlotte's question?",50,NA,86693fda-e395-43d9-8e38-8a070c1bd71d,2024-07-19 13:51:23 CEST
10049,0,html-slider-response,5,62144,0.0-2.0-0.2,NA,<b>Jennifer:</b><em> What does Betsy have?</em><br> <b>Robert:</b><em> She loves dancing salsa.</em> <br> <br> How well does Robert's response fit Jennifer's question?,50,NA,86693fda-e395-43d9-8e38-8a070c1bd71d,2024-07-19 13:51:23 CEST
7573,100,html-slider-response,6,69720,0.0-2.0-0.3,NA,<b>Leo:</b><em> What did Greg buy?</em><br> <b>Grace:</b><em> Mia knows that he bought a new car.</em> <br> <br> How well does Grace's response fit Leo's question?,50,NA,86693fda-e395-43d9-8e38-8a070c1bd71d,2024-07-19 13:51:23 CEST
8663,100,html-slider-response,7,78387,0.0-2.0-0.4,NA,"<b>Oliver:</b><em> What did Ann steal?</em><br> <b>Alice:</b><em> Ann, who stole the money, was caught by the police.</em> <br> <br> How well does Alice's response fit Oliver's question?",50,NA,86693fda-e395-43d9-8e38-8a070c1bd71d,2024-07-19 13:51:23 CEST
5494,100,html-slider-response,8,83885,0.0-2.0-0.5,NA,<b>Chloe:</b><em> What did Danny eat?</em><br> <b>Nora:</b><em> Linda confessed that he ate the last cupcake.</em> <br> <br> How well does Nora's response fit Chloe's question?,50,NA,86693fda-e395-43d9-8e38-8a070c1bd71d,2024-07-19 13:51:23 CEST
4238,100,html-slider-response,9,88127,0.0-2.0-0.6,NA,<b>Bob:</b><em> What did Lucy break?</em><br> <b>Nina:</b><em> Tony confirmed that she broke the plate.</em> <br> <br> How well does Nina's response fit Bob's question?,50,NA,86693fda-e395-43d9-8e38-8a070c1bd71d,2024-07-19 13:51:23 CEST
6146,100,html-slider-response,10,94276,0.0-2.0-0.7,NA,<b>Dawn:</b><em> What did Dustin lose?</em><br> <b>Charlie:</b><em> Patricia discovered that he lost his key.</em> <br> <br> How well does Charlie's response fit Dawn's question?,50,NA,86693fda-e395-43d9-8e38-8a070c1bd71d,2024-07-19 13:51:23 CEST
4976,100,html-slider-response,11,99256,0.0-2.0-0.8,NA,<b>Isabel:</b><em> Who did Raul cheat on?</em><br> <b>Noah:</b><em> Emma is right that he cheated on his wife.</em> <br> <br> How well does Noah's response fit Isabel's question?,50,NA,86693fda-e395-43d9-8e38-8a070c1bd71d,2024-07-19 13:51:23 CEST
31002,"{""P0_Q0"":null,""age"":""32"",""gender"":""female"",""language"":""yes"",""amE"":""yes"",""comments"":""nice and simple""}",survey,12,130385,0.0-3.0,NA,NA,NA,[],86693fda-e395-43d9-8e38-8a070c1bd71d,2024-07-19 13:51:23 CEST
15212,"{""Q0"":""Elizabeth""}",survey-text,0,15223,0.0-0.0-0.0,TRUE,NA,NA,NA,4be3fa71-fd07-4eb6-80d4-594d33ff0cc9,2024-07-19 13:51:39 CEST
1364,0,html-button-response,1,16588,0.0-0.0-3.0-0.0,NA,<p style='text-align:left'><b> Correct response! You are a human :) </b><br><br></p>,NA,NA,4be3fa71-fd07-4eb6-80d4-594d33ff0cc9,2024-07-19 13:51:39 CEST
15965,0,html-button-response,2,32553,0.0-1.0,NA,"<h3>Instructions</h3>  <p style='text-align:left'>In this experiment, you will read nine conversations between two speakers, as in this example, where Candy asks a question, and Lenny responds.</p>  <p style='text-align:left'> <b>Candy</b>: <i>Is this house big? </i> <br> <b>Lenny</b>: <i> Cassandra suggested that it's huge. </i> </p>  <p style='text-align:left'> We ask you to judge how well the response fits the question. You will give your judgment on a slider marked 'totally doesn't fit' at one end and 'totally fits' at the other.</p>  <p style='text-align:left'>The experiment will take around 2 minutes, and you will be paid 40 cents.</p>  <p style='text-align:left' font size=""1"">By clicking on the button below, you agree to participate in this experiment, which is conducted by researchers at the University of Stuttgart. You may withdraw from this experiment at any time. The data collected will be anonymous and confidential. If you have any questions, you may contact the requester through Prolific's platform, or directly at st180735@stud.uni-stuttgart.de.</p>",NA,NA,4be3fa71-fd07-4eb6-80d4-594d33ff0cc9,2024-07-19 13:51:39 CEST
13860,47,html-slider-response,3,46414,0.0-2.0-0.0,NA,<b>Chloe:</b><em> What did Lucy break?</em><br> <b>Clare:</b><em> Tony is right that she broke the plate.</em> <br> <br> How well does Clare's response fit Chloe's question?,50,NA,4be3fa71-fd07-4eb6-80d4-594d33ff0cc9,2024-07-19 13:51:39 CEST
5585,100,html-slider-response,4,52000,0.0-2.0-0.1,NA,<b>Mary:</b><em> Which course did Ava take?</em><br> <b>John:</b><em> She took the French course.</em> <br> <br> How well does John's response fit Mary's question?,50,NA,4be3fa71-fd07-4eb6-80d4-594d33ff0cc9,2024-07-19 13:51:39 CEST
10421,58,html-slider-response,5,62423,0.0-2.0-0.2,NA,<b>Nora:</b><em> What did Danny eat?</em><br> <b>Charlotte:</b><em> Linda knows that he ate the last cupcake.</em> <br> <br> How well does Charlotte's response fit Nora's question?,50,NA,4be3fa71-fd07-4eb6-80d4-594d33ff0cc9,2024-07-19 13:51:39 CEST
13071,41,html-slider-response,6,75495,0.0-2.0-0.3,NA,"<b>Isabel:</b><em> What did Ann steal?</em><br> <b>Frank:</b><em> The manager reported Ann, who stole the money.</em> <br> <br> How well does Frank's response fit Isabel's question?",50,NA,4be3fa71-fd07-4eb6-80d4-594d33ff0cc9,2024-07-19 13:51:39 CEST
9862,70,html-slider-response,7,85358,0.0-2.0-0.4,NA,<b>Jennifer:</b><em> What does Betsy have?</em><br> <b>Robert:</b><em> She loves dancing salsa.</em> <br> <br> How well does Robert's response fit Jennifer's question?,50,NA,4be3fa71-fd07-4eb6-80d4-594d33ff0cc9,2024-07-19 13:51:39 CEST
10512,67,html-slider-response,8,95871,0.0-2.0-0.5,NA,<b>Steven:</b><em> What did Greg buy?</em><br> <b>Vincent:</b><em> Mia confessed that he bought a new car.</em> <br> <br> How well does Vincent's response fit Steven's question?,50,NA,4be3fa71-fd07-4eb6-80d4-594d33ff0cc9,2024-07-19 13:51:39 CEST
9437,70,html-slider-response,9,105309,0.0-2.0-0.6,NA,<b>Nina:</b><em> What did Dustin lose?</em><br> <b>William:</b><em> Patricia confirmed that he lost his key.</em> <br> <br> How well does William's response fit Nina's question?,50,NA,4be3fa71-fd07-4eb6-80d4-594d33ff0cc9,2024-07-19 13:51:39 CEST
12382,90,html-slider-response,10,117692,0.0-2.0-0.7,NA,<b>Charlie:</b><em> Who did Raul cheat on?</em><br> <b>Oliver:</b><em> Emma discovered that he cheated on his wife.</em> <br> <br> How well does Oliver's response fit Charlie's question?,50,NA,4be3fa71-fd07-4eb6-80d4-594d33ff0cc9,2024-07-19 13:51:39 CEST
9878,70,html-slider-response,11,127570,0.0-2.0-0.8,NA,"<b>Leo:</b><em> What did Jack see?</em><br> <b>Ken:</b><em> Jack, who saw the murder, ran away.</em> <br> <br> How well does Ken's response fit Leo's question?",50,NA,4be3fa71-fd07-4eb6-80d4-594d33ff0cc9,2024-07-19 13:51:39 CEST
9813,"{""P0_Q0"":null,""age"":""21"",""gender"":""male"",""language"":""yes"",""amE"":""yes"",""comments"":""""}",survey,12,137420,0.0-3.0,NA,NA,NA,[],4be3fa71-fd07-4eb6-80d4-594d33ff0cc9,2024-07-19 13:51:39 CEST
26773,"{""Q0"":""Elizabeth""}",survey-text,0,26797,0.0-0.0-0.0,TRUE,NA,NA,NA,b4a74651-a210-4bf5-8b98-03a0470d4ed2,2024-07-19 13:52:05 CEST
3334,0,html-button-response,1,30137,0.0-0.0-3.0-0.0,NA,<p style='text-align:left'><b> Correct response! You are a human :) </b><br><br></p>,NA,NA,b4a74651-a210-4bf5-8b98-03a0470d4ed2,2024-07-19 13:52:05 CEST
22358,0,html-button-response,2,52497,0.0-1.0,NA,"<h3>Instructions</h3>  <p style='text-align:left'>In this experiment, you will read nine conversations between two speakers, as in this example, where Candy asks a question, and Lenny responds.</p>  <p style='text-align:left'> <b>Candy</b>: <i>Is this house big? </i> <br> <b>Lenny</b>: <i> Cassandra suggested that it's huge. </i> </p>  <p style='text-align:left'> We ask you to judge how well the response fits the question. You will give your judgment on a slider marked 'totally doesn't fit' at one end and 'totally fits' at the other.</p>  <p style='text-align:left'>The experiment will take around 2 minutes, and you will be paid 40 cents.</p>  <p style='text-align:left' font size=""1"">By clicking on the button below, you agree to participate in this experiment, which is conducted by researchers at the University of Stuttgart. You may withdraw from this experiment at any time. The data collected will be anonymous and confidential. If you have any questions, you may contact the requester through Prolific's platform, or directly at st180735@stud.uni-stuttgart.de.</p>",NA,NA,b4a74651-a210-4bf5-8b98-03a0470d4ed2,2024-07-19 13:52:05 CEST
25705,57,html-slider-response,3,78197,0.0-2.0-0.0,NA,<b>Charlie:</b><em> What did Jack see?</em><br> <b>Nina:</b><em> Sophia confirmed that he saw the murder.</em> <br> <br> How well does Nina's response fit Charlie's question?,50,NA,b4a74651-a210-4bf5-8b98-03a0470d4ed2,2024-07-19 13:52:05 CEST
18201,96,html-slider-response,4,96403,0.0-2.0-0.1,NA,<b>Isabel:</b><em> What did Ann steal?</em><br> <b>Bob:</b><em> David discovered that she stole the money.</em> <br> <br> How well does Bob's response fit Isabel's question?,50,NA,b4a74651-a210-4bf5-8b98-03a0470d4ed2,2024-07-19 13:52:05 CEST
12893,2,html-slider-response,5,109300,0.0-2.0-0.2,NA,<b>Jennifer:</b><em> What does Betsy have?</em><br> <b>Robert:</b><em> She loves dancing salsa.</em> <br> <br> How well does Robert's response fit Jennifer's question?,50,NA,b4a74651-a210-4bf5-8b98-03a0470d4ed2,2024-07-19 13:52:05 CEST
18225,62,html-slider-response,6,127538,0.0-2.0-0.3,NA,"<b>Charlotte:</b><em> What did Danny eat?</em><br> <b>Alice:</b><em> Danny, who ate the last cupcake, has a sweet tooth.</em> <br> <br> How well does Alice's response fit Charlotte's question?",50,NA,b4a74651-a210-4bf5-8b98-03a0470d4ed2,2024-07-19 13:52:05 CEST
12161,100,html-slider-response,7,139701,0.0-2.0-0.4,NA,<b>Mary:</b><em> Which course did Ava take?</em><br> <b>John:</b><em> She took the French course.</em> <br> <br> How well does John's response fit Mary's question?,50,NA,b4a74651-a210-4bf5-8b98-03a0470d4ed2,2024-07-19 13:52:05 CEST
19387,29,html-slider-response,8,159092,0.0-2.0-0.5,NA,<b>Frank:</b><em> What did Dustin lose?</em><br> <b>Dawn:</b><em> Patricia is right that he lost his key.</em> <br> <br> How well does Dawn's response fit Frank's question?,50,NA,b4a74651-a210-4bf5-8b98-03a0470d4ed2,2024-07-19 13:52:05 CEST
12542,96,html-slider-response,9,171637,0.0-2.0-0.6,NA,"<b>Clare:</b><em> What did Greg buy?</em><br> <b>Vincent:</b><em> The neighbor envies Greg, who bought a new car.</em> <br> <br> How well does Vincent's response fit Clare's question?",50,NA,b4a74651-a210-4bf5-8b98-03a0470d4ed2,2024-07-19 13:52:05 CEST
14876,66,html-slider-response,10,186518,0.0-2.0-0.7,NA,<b>Nora:</b><em> Who did Raul cheat on?</em><br> <b>Ken:</b><em> Emma knows that he cheated on his wife.</em> <br> <br> How well does Ken's response fit Nora's question?,50,NA,b4a74651-a210-4bf5-8b98-03a0470d4ed2,2024-07-19 13:52:05 CEST
9710,82,html-slider-response,11,196231,0.0-2.0-0.8,NA,<b>Noah:</b><em> What did Lucy break?</em><br> <b>Grace:</b><em> Tony confessed that she broke the plate.</em> <br> <br> How well does Grace's response fit Noah's question?,50,NA,b4a74651-a210-4bf5-8b98-03a0470d4ed2,2024-07-19 13:52:05 CEST
148422,"{""P0_Q0"":null,""age"":""51"",""gender"":""female"",""language"":""yes"",""amE"":""yes"",""comments"":""Well, the study was interesting because most of the answers really did fit if but and then again, they didn't fit, interesting.""}",survey,12,344775,0.0-3.0,NA,NA,NA,[],b4a74651-a210-4bf5-8b98-03a0470d4ed2,2024-07-19 13:52:05 CEST
11645,"{""Q0"":""Susan""}",survey-text,0,11662,0.0-0.0-0.0,TRUE,NA,NA,NA,1c83a42d-8379-4495-8a2b-f7001f2f9b73,2024-07-19 13:52:19 CEST
1440,0,html-button-response,1,13103,0.0-0.0-3.0-0.0,NA,<p style='text-align:left'><b> Correct response! You are a human :) </b><br><br></p>,NA,NA,1c83a42d-8379-4495-8a2b-f7001f2f9b73,2024-07-19 13:52:19 CEST
8449,0,html-button-response,2,21553,0.0-1.0,NA,"<h3>Instructions</h3>  <p style='text-align:left'>In this experiment, you will read nine conversations between two speakers, as in this example, where Candy asks a question, and Lenny responds.</p>  <p style='text-align:left'> <b>Candy</b>: <i>Is this house big? </i> <br> <b>Lenny</b>: <i> Cassandra suggested that it's huge. </i> </p>  <p style='text-align:left'> We ask you to judge how well the response fits the question. You will give your judgment on a slider marked 'totally doesn't fit' at one end and 'totally fits' at the other.</p>  <p style='text-align:left'>The experiment will take around 2 minutes, and you will be paid 40 cents.</p>  <p style='text-align:left' font size=""1"">By clicking on the button below, you agree to participate in this experiment, which is conducted by researchers at the University of Stuttgart. You may withdraw from this experiment at any time. The data collected will be anonymous and confidential. If you have any questions, you may contact the requester through Prolific's platform, or directly at st180735@stud.uni-stuttgart.de.</p>",NA,NA,1c83a42d-8379-4495-8a2b-f7001f2f9b73,2024-07-19 13:52:19 CEST
13573,7,html-slider-response,3,35127,0.0-2.0-0.0,NA,<b>Vincent:</b><em> Who did Raul cheat on?</em><br> <b>Noah:</b><em> Emma is right that he cheated on his wife.</em> <br> <br> How well does Noah's response fit Vincent's question?,50,NA,1c83a42d-8379-4495-8a2b-f7001f2f9b73,2024-07-19 13:52:19 CEST
6507,65,html-slider-response,4,41635,0.0-2.0-0.1,NA,"<b>Nina:</b><em> What did Jack see?</em><br> <b>Isabel:</b><em> The police found Jack, who saw the murder.</em> <br> <br> How well does Isabel's response fit Nina's question?",50,NA,1c83a42d-8379-4495-8a2b-f7001f2f9b73,2024-07-19 13:52:19 CEST
7925,73,html-slider-response,5,49561,0.0-2.0-0.2,NA,"<b>Charlotte:</b><em> What did Dustin lose?</em><br> <b>Nora:</b><em> Dustin, who lost his key, feels upset.</em> <br> <br> How well does Nora's response fit Charlotte's question?",50,NA,1c83a42d-8379-4495-8a2b-f7001f2f9b73,2024-07-19 13:52:19 CEST
7685,98,html-slider-response,6,57247,0.0-2.0-0.3,NA,<b>Bob:</b><em> What did Danny eat?</em><br> <b>Clare:</b><em> Linda discovered that he ate the last cupcake.</em> <br> <br> How well does Clare's response fit Bob's question?,50,NA,1c83a42d-8379-4495-8a2b-f7001f2f9b73,2024-07-19 13:52:19 CEST
10179,80,html-slider-response,7,67427,0.0-2.0-0.4,NA,<b>Frank:</b><em> What did Ann steal?</em><br> <b>Alice:</b><em> David knows that she stole the money.</em> <br> <br> How well does Alice's response fit Frank's question?,50,NA,1c83a42d-8379-4495-8a2b-f7001f2f9b73,2024-07-19 13:52:19 CEST
5853,85,html-slider-response,8,73281,0.0-2.0-0.5,NA,<b>William:</b><em> What did Greg buy?</em><br> <b>Leo:</b><em> Mia confessed that he bought a new car.</em> <br> <br> How well does Leo's response fit William's question?,50,NA,1c83a42d-8379-4495-8a2b-f7001f2f9b73,2024-07-19 13:52:19 CEST
8715,100,html-slider-response,9,81997,0.0-2.0-0.6,NA,<b>Mary:</b><em> Which course did Ava take?</em><br> <b>John:</b><em> She took the French course.</em> <br> <br> How well does John's response fit Mary's question?,50,NA,1c83a42d-8379-4495-8a2b-f7001f2f9b73,2024-07-19 13:52:19 CEST
6705,0,html-slider-response,10,88703,0.0-2.0-0.7,NA,<b>Jennifer:</b><em> What does Betsy have?</em><br> <b>Robert:</b><em> She loves dancing salsa.</em> <br> <br> How well does Robert's response fit Jennifer's question?,50,NA,1c83a42d-8379-4495-8a2b-f7001f2f9b73,2024-07-19 13:52:19 CEST
5337,87,html-slider-response,11,94041,0.0-2.0-0.8,NA,<b>Dawn:</b><em> What did Lucy break?</em><br> <b>Ken:</b><em> Tony confirmed that she broke the plate.</em> <br> <br> How well does Ken's response fit Dawn's question?,50,NA,1c83a42d-8379-4495-8a2b-f7001f2f9b73,2024-07-19 13:52:19 CEST
47317,"{""P0_Q0"":null,""age"":""37"",""gender"":""male"",""language"":""yes"",""amE"":""yes"",""comments"":""I reduced the level if the answer did provide a response to the question but added extraneous information.""}",survey,12,141408,0.0-3.0,NA,NA,NA,[],1c83a42d-8379-4495-8a2b-f7001f2f9b73,2024-07-19 13:52:19 CEST
9968,"{""Q0"":""Linda""}",survey-text,0,9981,0.0-0.0-0.0,TRUE,NA,NA,NA,757a8ba0-47cc-4a22-96cf-657f8a9e5317,2024-07-19 13:52:45 CEST
2240,0,html-button-response,1,12222,0.0-0.0-3.0-0.0,NA,<p style='text-align:left'><b> Correct response! You are a human :) </b><br><br></p>,NA,NA,757a8ba0-47cc-4a22-96cf-657f8a9e5317,2024-07-19 13:52:45 CEST
10204,0,html-button-response,2,22427,0.0-1.0,NA,"<h3>Instructions</h3>  <p style='text-align:left'>In this experiment, you will read nine conversations between two speakers, as in this example, where Candy asks a question, and Lenny responds.</p>  <p style='text-align:left'> <b>Candy</b>: <i>Is this house big? </i> <br> <b>Lenny</b>: <i> Cassandra suggested that it's huge. </i> </p>  <p style='text-align:left'> We ask you to judge how well the response fits the question. You will give your judgment on a slider marked 'totally doesn't fit' at one end and 'totally fits' at the other.</p>  <p style='text-align:left'>The experiment will take around 2 minutes, and you will be paid 40 cents.</p>  <p style='text-align:left' font size=""1"">By clicking on the button below, you agree to participate in this experiment, which is conducted by researchers at the University of Stuttgart. You may withdraw from this experiment at any time. The data collected will be anonymous and confidential. If you have any questions, you may contact the requester through Prolific's platform, or directly at st180735@stud.uni-stuttgart.de.</p>",NA,NA,757a8ba0-47cc-4a22-96cf-657f8a9e5317,2024-07-19 13:52:45 CEST
11983,100,html-slider-response,3,34412,0.0-2.0-0.0,NA,"<b>Clare:</b><em> What did Lucy break?</em><br> <b>Bob:</b><em> The chef scolded Lucy, who broke the plate.</em> <br> <br> How well does Bob's response fit Clare's question?",50,NA,757a8ba0-47cc-4a22-96cf-657f8a9e5317,2024-07-19 13:52:45 CEST
5983,100,html-slider-response,4,40396,0.0-2.0-0.1,NA,<b>Isabel:</b><em> What did Greg buy?</em><br> <b>Leo:</b><em> Mia is right that he bought a new car.</em> <br> <br> How well does Leo's response fit Isabel's question?,50,NA,757a8ba0-47cc-4a22-96cf-657f8a9e5317,2024-07-19 13:52:45 CEST
5695,100,html-slider-response,5,46092,0.0-2.0-0.2,NA,<b>Nora:</b><em> What did Ann steal?</em><br> <b>Oliver:</b><em> David knows that she stole the money.</em> <br> <br> How well does Oliver's response fit Nora's question?,50,NA,757a8ba0-47cc-4a22-96cf-657f8a9e5317,2024-07-19 13:52:45 CEST
5822,100,html-slider-response,6,51916,0.0-2.0-0.3,NA,"<b>Chloe:</b><em> What did Danny eat?</em><br> <b>Noah:</b><em> Danny, who ate the last cupcake, has a sweet tooth.</em> <br> <br> How well does Noah's response fit Chloe's question?",50,NA,757a8ba0-47cc-4a22-96cf-657f8a9e5317,2024-07-19 13:52:45 CEST
4976,100,html-slider-response,7,56892,0.0-2.0-0.4,NA,<b>Mary:</b><em> Which course did Ava take?</em><br> <b>John:</b><em> She took the French course.</em> <br> <br> How well does John's response fit Mary's question?,50,NA,757a8ba0-47cc-4a22-96cf-657f8a9e5317,2024-07-19 13:52:45 CEST
8582,100,html-slider-response,8,65476,0.0-2.0-0.5,NA,<b>Alice:</b><em> What did Jack see?</em><br> <b>William:</b><em> Sophia discovered that he saw the murder.</em> <br> <br> How well does William's response fit Alice's question?,50,NA,757a8ba0-47cc-4a22-96cf-657f8a9e5317,2024-07-19 13:52:45 CEST
4576,100,html-slider-response,9,70053,0.0-2.0-0.6,NA,<b>Nina:</b><em> What did Dustin lose?</em><br> <b>Vincent:</b><em> Patricia confessed that he lost his key.</em> <br> <br> How well does Vincent's response fit Nina's question?,50,NA,757a8ba0-47cc-4a22-96cf-657f8a9e5317,2024-07-19 13:52:45 CEST
5039,100,html-slider-response,10,75093,0.0-2.0-0.7,NA,<b>Charlie:</b><em> Who did Raul cheat on?</em><br> <b>Dawn:</b><em> Emma confirmed that he cheated on his wife.</em> <br> <br> How well does Dawn's response fit Charlie's question?,50,NA,757a8ba0-47cc-4a22-96cf-657f8a9e5317,2024-07-19 13:52:45 CEST
7150,0,html-slider-response,11,82243,0.0-2.0-0.8,NA,<b>Jennifer:</b><em> What does Betsy have?</em><br> <b>Robert:</b><em> She loves dancing salsa.</em> <br> <br> How well does Robert's response fit Jennifer's question?,50,NA,757a8ba0-47cc-4a22-96cf-657f8a9e5317,2024-07-19 13:52:45 CEST
14873,"{""P0_Q0"":null,""age"":""72"",""gender"":""female"",""language"":""yes"",""amE"":""yes"",""comments"":""""}",survey,12,97159,0.0-3.0,NA,NA,NA,[],757a8ba0-47cc-4a22-96cf-657f8a9e5317,2024-07-19 13:52:45 CEST
6333,"{""Q0"":""Linda""}",survey-text,0,6341,0.0-0.0-0.0,TRUE,NA,NA,NA,1e6b3d2e-e9a5-427d-b419-cca5e363e4bd,2024-07-19 13:53:02 CEST
1495,0,html-button-response,1,7838,0.0-0.0-3.0-0.0,NA,<p style='text-align:left'><b> Correct response! You are a human :) </b><br><br></p>,NA,NA,1e6b3d2e-e9a5-427d-b419-cca5e363e4bd,2024-07-19 13:53:02 CEST
5466,0,html-button-response,2,13305,0.0-1.0,NA,"<h3>Instructions</h3>  <p style='text-align:left'>In this experiment, you will read nine conversations between two speakers, as in this example, where Candy asks a question, and Lenny responds.</p>  <p style='text-align:left'> <b>Candy</b>: <i>Is this house big? </i> <br> <b>Lenny</b>: <i> Cassandra suggested that it's huge. </i> </p>  <p style='text-align:left'> We ask you to judge how well the response fits the question. You will give your judgment on a slider marked 'totally doesn't fit' at one end and 'totally fits' at the other.</p>  <p style='text-align:left'>The experiment will take around 2 minutes, and you will be paid 40 cents.</p>  <p style='text-align:left' font size=""1"">By clicking on the button below, you agree to participate in this experiment, which is conducted by researchers at the University of Stuttgart. You may withdraw from this experiment at any time. The data collected will be anonymous and confidential. If you have any questions, you may contact the requester through Prolific's platform, or directly at st180735@stud.uni-stuttgart.de.</p>",NA,NA,1e6b3d2e-e9a5-427d-b419-cca5e363e4bd,2024-07-19 13:53:02 CEST
3749,100,html-slider-response,3,17055,0.0-2.0-0.0,NA,<b>Mary:</b><em> Which course did Ava take?</em><br> <b>John:</b><em> She took the French course.</em> <br> <br> How well does John's response fit Mary's question?,50,NA,1e6b3d2e-e9a5-427d-b419-cca5e363e4bd,2024-07-19 13:53:02 CEST
12101,100,html-slider-response,4,29156,0.0-2.0-0.1,NA,<b>Vincent:</b><em> What did Ann steal?</em><br> <b>Frank:</b><em> David confessed that she stole the money.</em> <br> <br> How well does Frank's response fit Vincent's question?,50,NA,1e6b3d2e-e9a5-427d-b419-cca5e363e4bd,2024-07-19 13:53:02 CEST
5898,100,html-slider-response,5,35055,0.0-2.0-0.2,NA,<b>Isabel:</b><em> What did Greg buy?</em><br> <b>Nina:</b><em> Mia discovered that he bought a new car.</em> <br> <br> How well does Nina's response fit Isabel's question?,50,NA,1e6b3d2e-e9a5-427d-b419-cca5e363e4bd,2024-07-19 13:53:02 CEST
10250,100,html-slider-response,6,45305,0.0-2.0-0.3,NA,<b>Noah:</b><em> What did Jack see?</em><br> <b>Steven:</b><em> Sophia confirmed that he saw the murder.</em> <br> <br> How well does Steven's response fit Noah's question?,50,NA,1e6b3d2e-e9a5-427d-b419-cca5e363e4bd,2024-07-19 13:53:02 CEST
4483,75,html-slider-response,7,49788,0.0-2.0-0.4,NA,<b>Ken:</b><em> What did Dustin lose?</em><br> <b>William:</b><em> Patricia is right that he lost his key.</em> <br> <br> How well does William's response fit Ken's question?,50,NA,1e6b3d2e-e9a5-427d-b419-cca5e363e4bd,2024-07-19 13:53:02 CEST
3984,0,html-slider-response,8,53773,0.0-2.0-0.5,NA,<b>Jennifer:</b><em> What does Betsy have?</em><br> <b>Robert:</b><em> She loves dancing salsa.</em> <br> <br> How well does Robert's response fit Jennifer's question?,50,NA,1e6b3d2e-e9a5-427d-b419-cca5e363e4bd,2024-07-19 13:53:02 CEST
6198,91,html-slider-response,9,59971,0.0-2.0-0.6,NA,"<b>Oliver:</b><em> Who did Raul cheat on?</em><br> <b>Clare:</b><em> Ann criticized Raul, who cheated on his wife.</em> <br> <br> How well does Clare's response fit Oliver's question?",50,NA,1e6b3d2e-e9a5-427d-b419-cca5e363e4bd,2024-07-19 13:53:02 CEST
5850,100,html-slider-response,10,65822,0.0-2.0-0.7,NA,"<b>Dawn:</b><em> What did Danny eat?</em><br> <b>Bob:</b><em> Danny, who ate the last cupcake, has a sweet tooth.</em> <br> <br> How well does Bob's response fit Dawn's question?",50,NA,1e6b3d2e-e9a5-427d-b419-cca5e363e4bd,2024-07-19 13:53:02 CEST
5299,60,html-slider-response,11,71121,0.0-2.0-0.8,NA,<b>Charlie:</b><em> What did Lucy break?</em><br> <b>Nora:</b><em> Tony knows that she broke the plate.</em> <br> <br> How well does Nora's response fit Charlie's question?,50,NA,1e6b3d2e-e9a5-427d-b419-cca5e363e4bd,2024-07-19 13:53:02 CEST
7515,"{""P0_Q0"":null,""age"":""31"",""gender"":""male"",""language"":""yes"",""amE"":""yes"",""comments"":""""}",survey,12,78663,0.0-3.0,NA,NA,NA,[],1e6b3d2e-e9a5-427d-b419-cca5e363e4bd,2024-07-19 13:53:02 CEST
11224,"{""Q0"":""Mary""}",survey-text,0,11244,0.0-0.0-0.0,TRUE,NA,NA,NA,e6bd1ee4-53ac-4fc6-a62b-6bd67a42951b,2024-07-19 13:53:10 CEST
2181,0,html-button-response,1,13427,0.0-0.0-3.0-0.0,NA,<p style='text-align:left'><b> Correct response! You are a human :) </b><br><br></p>,NA,NA,e6bd1ee4-53ac-4fc6-a62b-6bd67a42951b,2024-07-19 13:53:10 CEST
12758,0,html-button-response,2,26187,0.0-1.0,NA,"<h3>Instructions</h3>  <p style='text-align:left'>In this experiment, you will read nine conversations between two speakers, as in this example, where Candy asks a question, and Lenny responds.</p>  <p style='text-align:left'> <b>Candy</b>: <i>Is this house big? </i> <br> <b>Lenny</b>: <i> Cassandra suggested that it's huge. </i> </p>  <p style='text-align:left'> We ask you to judge how well the response fits the question. You will give your judgment on a slider marked 'totally doesn't fit' at one end and 'totally fits' at the other.</p>  <p style='text-align:left'>The experiment will take around 2 minutes, and you will be paid 40 cents.</p>  <p style='text-align:left' font size=""1"">By clicking on the button below, you agree to participate in this experiment, which is conducted by researchers at the University of Stuttgart. You may withdraw from this experiment at any time. The data collected will be anonymous and confidential. If you have any questions, you may contact the requester through Prolific's platform, or directly at st180735@stud.uni-stuttgart.de.</p>",NA,NA,e6bd1ee4-53ac-4fc6-a62b-6bd67a42951b,2024-07-19 13:53:10 CEST
9733,77,html-slider-response,3,35923,0.0-2.0-0.0,NA,<b>Grace:</b><em> What did Jack see?</em><br> <b>Dawn:</b><em> Sophia confirmed that he saw the murder.</em> <br> <br> How well does Dawn's response fit Grace's question?,50,NA,e6bd1ee4-53ac-4fc6-a62b-6bd67a42951b,2024-07-19 13:53:10 CEST
7166,100,html-slider-response,4,43090,0.0-2.0-0.1,NA,<b>Mary:</b><em> Which course did Ava take?</em><br> <b>John:</b><em> She took the French course.</em> <br> <br> How well does John's response fit Mary's question?,50,NA,e6bd1ee4-53ac-4fc6-a62b-6bd67a42951b,2024-07-19 13:53:10 CEST
8439,96,html-slider-response,5,51532,0.0-2.0-0.2,NA,"<b>Noah:</b><em> What did Ann steal?</em><br> <b>Charlotte:</b><em> Ann, who stole the money, was caught by the police.</em> <br> <br> How well does Charlotte's response fit Noah's question?",50,NA,e6bd1ee4-53ac-4fc6-a62b-6bd67a42951b,2024-07-19 13:53:10 CEST
7621,64,html-slider-response,6,59155,0.0-2.0-0.3,NA,<b>Steven:</b><em> What did Danny eat?</em><br> <b>Charlie:</b><em> Linda is right that he ate the last cupcake.</em> <br> <br> How well does Charlie's response fit Steven's question?,50,NA,e6bd1ee4-53ac-4fc6-a62b-6bd67a42951b,2024-07-19 13:53:10 CEST
10822,90,html-slider-response,7,69979,0.0-2.0-0.4,NA,<b>William:</b><em> Who did Raul cheat on?</em><br> <b>Isabel:</b><em> Emma knows that he cheated on his wife.</em> <br> <br> How well does Isabel's response fit William's question?,50,NA,e6bd1ee4-53ac-4fc6-a62b-6bd67a42951b,2024-07-19 13:53:10 CEST
6350,93,html-slider-response,8,76331,0.0-2.0-0.5,NA,<b>Alice:</b><em> What did Lucy break?</em><br> <b>Ken:</b><em> Tony discovered that she broke the plate.</em> <br> <br> How well does Ken's response fit Alice's question?,50,NA,e6bd1ee4-53ac-4fc6-a62b-6bd67a42951b,2024-07-19 13:53:10 CEST
7430,95,html-slider-response,9,83762,0.0-2.0-0.6,NA,<b>Frank:</b><em> What did Dustin lose?</em><br> <b>Bob:</b><em> Patricia confessed that he lost his key.</em> <br> <br> How well does Bob's response fit Frank's question?,50,NA,e6bd1ee4-53ac-4fc6-a62b-6bd67a42951b,2024-07-19 13:53:10 CEST
8230,96,html-slider-response,10,91994,0.0-2.0-0.7,NA,"<b>Leo:</b><em> What did Greg buy?</em><br> <b>Clare:</b><em> The neighbor envies Greg, who bought a new car.</em> <br> <br> How well does Clare's response fit Leo's question?",50,NA,e6bd1ee4-53ac-4fc6-a62b-6bd67a42951b,2024-07-19 13:53:10 CEST
6048,0,html-slider-response,11,98044,0.0-2.0-0.8,NA,<b>Jennifer:</b><em> What does Betsy have?</em><br> <b>Robert:</b><em> She loves dancing salsa.</em> <br> <br> How well does Robert's response fit Jennifer's question?,50,NA,e6bd1ee4-53ac-4fc6-a62b-6bd67a42951b,2024-07-19 13:53:10 CEST
13165,"{""P0_Q0"":null,""age"":""68"",""gender"":""male"",""language"":""yes"",""amE"":""yes"",""comments"":""""}",survey,12,111314,0.0-3.0,NA,NA,NA,[],e6bd1ee4-53ac-4fc6-a62b-6bd67a42951b,2024-07-19 13:53:10 CEST
13619,"{""Q0"":""Linda""}",survey-text,0,13633,0.0-0.0-0.0,TRUE,NA,NA,NA,4a5e1bca-96ca-40c2-ae80-d0c0d55dec47,2024-07-19 13:54:26 CEST
2078,0,html-button-response,1,15712,0.0-0.0-3.0-0.0,NA,<p style='text-align:left'><b> Correct response! You are a human :) </b><br><br></p>,NA,NA,4a5e1bca-96ca-40c2-ae80-d0c0d55dec47,2024-07-19 13:54:26 CEST
16255,0,html-button-response,2,31968,0.0-1.0,NA,"<h3>Instructions</h3>  <p style='text-align:left'>In this experiment, you will read nine conversations between two speakers, as in this example, where Candy asks a question, and Lenny responds.</p>  <p style='text-align:left'> <b>Candy</b>: <i>Is this house big? </i> <br> <b>Lenny</b>: <i> Cassandra suggested that it's huge. </i> </p>  <p style='text-align:left'> We ask you to judge how well the response fits the question. You will give your judgment on a slider marked 'totally doesn't fit' at one end and 'totally fits' at the other.</p>  <p style='text-align:left'>The experiment will take around 2 minutes, and you will be paid 40 cents.</p>  <p style='text-align:left' font size=""1"">By clicking on the button below, you agree to participate in this experiment, which is conducted by researchers at the University of Stuttgart. You may withdraw from this experiment at any time. The data collected will be anonymous and confidential. If you have any questions, you may contact the requester through Prolific's platform, or directly at st180735@stud.uni-stuttgart.de.</p>",NA,NA,4a5e1bca-96ca-40c2-ae80-d0c0d55dec47,2024-07-19 13:54:26 CEST
16775,29,html-slider-response,3,48744,0.0-2.0-0.0,NA,"<b>Isabel:</b><em> What did Ann steal?</em><br> <b>Steven:</b><em> Ann, who stole the money, was caught by the police.</em> <br> <br> How well does Steven's response fit Isabel's question?",50,NA,4a5e1bca-96ca-40c2-ae80-d0c0d55dec47,2024-07-19 13:54:26 CEST
15335,53,html-slider-response,4,64080,0.0-2.0-0.1,NA,<b>Noah:</b><em> What did Lucy break?</em><br> <b>Grace:</b><em> Tony confirmed that she broke the plate.</em> <br> <br> How well does Grace's response fit Noah's question?,50,NA,4a5e1bca-96ca-40c2-ae80-d0c0d55dec47,2024-07-19 13:54:26 CEST
13863,62,html-slider-response,5,77944,0.0-2.0-0.2,NA,<b>Ken:</b><em> Who did Raul cheat on?</em><br> <b>Leo:</b><em> Emma discovered that he cheated on his wife.</em> <br> <br> How well does Leo's response fit Ken's question?,50,NA,4a5e1bca-96ca-40c2-ae80-d0c0d55dec47,2024-07-19 13:54:26 CEST
8710,59,html-slider-response,6,86656,0.0-2.0-0.3,NA,<b>Charlie:</b><em> What did Dustin lose?</em><br> <b>Dawn:</b><em> Patricia knows that he lost his key.</em> <br> <br> How well does Dawn's response fit Charlie's question?,50,NA,4a5e1bca-96ca-40c2-ae80-d0c0d55dec47,2024-07-19 13:54:26 CEST
10063,0,html-slider-response,7,96720,0.0-2.0-0.4,NA,<b>Jennifer:</b><em> What does Betsy have?</em><br> <b>Robert:</b><em> She loves dancing salsa.</em> <br> <br> How well does Robert's response fit Jennifer's question?,50,NA,4a5e1bca-96ca-40c2-ae80-d0c0d55dec47,2024-07-19 13:54:26 CEST
10317,53,html-slider-response,8,107039,0.0-2.0-0.5,NA,<b>William:</b><em> What did Danny eat?</em><br> <b>Nina:</b><em> Linda confessed that he ate the last cupcake.</em> <br> <br> How well does Nina's response fit William's question?,50,NA,4a5e1bca-96ca-40c2-ae80-d0c0d55dec47,2024-07-19 13:54:26 CEST
5792,100,html-slider-response,9,112832,0.0-2.0-0.6,NA,<b>Mary:</b><em> Which course did Ava take?</em><br> <b>John:</b><em> She took the French course.</em> <br> <br> How well does John's response fit Mary's question?,50,NA,4a5e1bca-96ca-40c2-ae80-d0c0d55dec47,2024-07-19 13:54:26 CEST
6550,54,html-slider-response,10,119384,0.0-2.0-0.7,NA,<b>Chloe:</b><em> What did Greg buy?</em><br> <b>Frank:</b><em> Mia is right that he bought a new car.</em> <br> <br> How well does Frank's response fit Chloe's question?,50,NA,4a5e1bca-96ca-40c2-ae80-d0c0d55dec47,2024-07-19 13:54:26 CEST
5303,34,html-slider-response,11,124688,0.0-2.0-0.8,NA,"<b>Clare:</b><em> What did Jack see?</em><br> <b>Vincent:</b><em> The police found Jack, who saw the murder.</em> <br> <br> How well does Vincent's response fit Clare's question?",50,NA,4a5e1bca-96ca-40c2-ae80-d0c0d55dec47,2024-07-19 13:54:26 CEST
12578,"{""P0_Q0"":null,""age"":""38"",""gender"":""male"",""language"":""yes"",""amE"":""yes"",""comments"":""""}",survey,12,137301,0.0-3.0,NA,NA,NA,[],4a5e1bca-96ca-40c2-ae80-d0c0d55dec47,2024-07-19 13:54:26 CEST
9669,"{""Q0"":""Susan""}",survey-text,0,9679,0.0-0.0-0.0,TRUE,NA,NA,NA,261b47b8-57ce-4fce-a3c1-46de8b18027a,2024-07-19 13:56:06 CEST
1116,0,html-button-response,1,10796,0.0-0.0-3.0-0.0,NA,<p style='text-align:left'><b> Correct response! You are a human :) </b><br><br></p>,NA,NA,261b47b8-57ce-4fce-a3c1-46de8b18027a,2024-07-19 13:56:06 CEST
4706,0,html-button-response,2,15502,0.0-1.0,NA,"<h3>Instructions</h3>  <p style='text-align:left'>In this experiment, you will read nine conversations between two speakers, as in this example, where Candy asks a question, and Lenny responds.</p>  <p style='text-align:left'> <b>Candy</b>: <i>Is this house big? </i> <br> <b>Lenny</b>: <i> Cassandra suggested that it's huge. </i> </p>  <p style='text-align:left'> We ask you to judge how well the response fits the question. You will give your judgment on a slider marked 'totally doesn't fit' at one end and 'totally fits' at the other.</p>  <p style='text-align:left'>The experiment will take around 2 minutes, and you will be paid 40 cents.</p>  <p style='text-align:left' font size=""1"">By clicking on the button below, you agree to participate in this experiment, which is conducted by researchers at the University of Stuttgart. You may withdraw from this experiment at any time. The data collected will be anonymous and confidential. If you have any questions, you may contact the requester through Prolific's platform, or directly at st180735@stud.uni-stuttgart.de.</p>",NA,NA,261b47b8-57ce-4fce-a3c1-46de8b18027a,2024-07-19 13:56:06 CEST
9579,94,html-slider-response,3,25083,0.0-2.0-0.0,NA,<b>Charlie:</b><em> What did Danny eat?</em><br> <b>Dawn:</b><em> Linda confirmed that he ate the last cupcake.</em> <br> <br> How well does Dawn's response fit Charlie's question?,50,NA,261b47b8-57ce-4fce-a3c1-46de8b18027a,2024-07-19 13:56:06 CEST
9983,94,html-slider-response,4,35067,0.0-2.0-0.1,NA,<b>Bob:</b><em> What did Lucy break?</em><br> <b>Frank:</b><em> Tony discovered that she broke the plate.</em> <br> <br> How well does Frank's response fit Bob's question?,50,NA,261b47b8-57ce-4fce-a3c1-46de8b18027a,2024-07-19 13:56:06 CEST
