rt,response,trial_type,trial_index,time_elapsed,internal_node_id,correct,stimulus,slider_start,accuracy,participant_id,ctime
11538,"{""Q0"":""patricia""}",survey-text,0,11545,0.0-0.0-0.0,TRUE,NA,NA,NA,47bbdd72-d60c-4d98-bbcf-284d4712ac5b,2024-07-19 15:02:36 CEST
1593,0,html-button-response,1,13141,0.0-0.0-3.0-0.0,NA,<p style='text-align:left'><b> Correct response! You are a human :) </b><br><br></p>,NA,NA,47bbdd72-d60c-4d98-bbcf-284d4712ac5b,2024-07-19 15:02:36 CEST
3011,0,html-button-response,2,16154,0.0-1.0,NA,"<h3>Instructions</h3>  <p style='text-align:left'>In this experiment, you will read nine questions asked by a speaker, as in this example, where Candy asks a question.</p>  <p style='text-align:left'> <b>Candy</b>: <i>Did Cassandra suggest that the house is big? </i> </p>  <p style='text-align:left'> We then ask you to judge what the speaker is asking about, for example: </p>  <p style='text-align:left'> Is Candy asking whether the house is big? </p>  <p style='text-align:left'>You give your response on a slider marked 'no' at one end and 'yes' at the other.</p>  <p style='text-align:left'>This experiment will take around 2 minutes, and you will be paid 40 cents.</p>  <p style='text-align:left' font size=""1"">By clicking on the button below, you agree to participate in this experiment, which is conducted by researchers at the University of Stuttgart. You may withdraw from this experiment at any time. The data collected will be anonymous and confidential. If you have any questions, you may contact the requester through Prolific's platform, or directly at st180735@stud.uni-stuttgart.de.</p>",NA,NA,47bbdd72-d60c-4d98-bbcf-284d4712ac5b,2024-07-19 15:02:36 CEST
15006,88,html-slider-response,3,31163,0.0-2.0-0.0,NA,<b>Steven:</b><em>  Did Sophia confess that Jack saw the murder?</em> <br> <br> Is Steven asking whether Jack saw the murder?,50,NA,47bbdd72-d60c-4d98-bbcf-284d4712ac5b,2024-07-19 15:02:36 CEST
5449,0,html-slider-response,4,36614,0.0-2.0-0.1,NA,<b>Robert:</b><em> Does Betsy have a cat?</em> <br> <br> Is Robert asking whether Betsy loves apples?,50,NA,47bbdd72-d60c-4d98-bbcf-284d4712ac5b,2024-07-19 15:02:36 CEST
9855,100,html-slider-response,5,46471,0.0-2.0-0.2,NA,<b>Mary:</b><em> Did Arthur take a French course?</em> <br> <br> Is Mary asking whether Arthur took a French course?,50,NA,47bbdd72-d60c-4d98-bbcf-284d4712ac5b,2024-07-19 15:02:36 CEST
7950,9,html-slider-response,6,54422,0.0-2.0-0.3,NA,"<b>Bob:</b><em> Did Lucy, who broke the plate, apologize?</em> <br> <br> Is Bob asking whether Lucy broke the plate?",50,NA,47bbdd72-d60c-4d98-bbcf-284d4712ac5b,2024-07-19 15:02:36 CEST
5434,95,html-slider-response,7,59858,0.0-2.0-0.4,NA,<b>William:</b><em>  Did Linda discover that Danny ate the last cupcake?</em> <br> <br> Is William asking whether Danny ate the last cupcake?,50,NA,47bbdd72-d60c-4d98-bbcf-284d4712ac5b,2024-07-19 15:02:36 CEST
7738,80,html-slider-response,8,67598,0.0-2.0-0.5,NA,<b>Ken:</b><em>  Is Emma right that Raul cheated on his wife?</em> <br> <br> Is Ken asking whether Raul cheated on his wife?,50,NA,47bbdd72-d60c-4d98-bbcf-284d4712ac5b,2024-07-19 15:02:36 CEST
9287,37,html-slider-response,9,76887,0.0-2.0-0.6,NA,<b>Nora:</b><em>  Does Patricia know that Dustin lost his key?</em> <br> <br> Is Nora asking whether Dustin lost his key?,50,NA,47bbdd72-d60c-4d98-bbcf-284d4712ac5b,2024-07-19 15:02:36 CEST
6808,50,html-slider-response,10,83697,0.0-2.0-0.7,NA,<b>Grace:</b><em>  Did David confirm that Ann stole the money?</em> <br> <br> Is Grace asking whether Ann stole the money?,50,NA,47bbdd72-d60c-4d98-bbcf-284d4712ac5b,2024-07-19 15:02:36 CEST
5566,16,html-slider-response,11,89264,0.0-2.0-0.8,NA,"<b>Vincent:</b><em> Does the neighbor envy Greg, who bought a new car?</em> <br> <br> Is Vincent asking whether Greg bought a new car?",50,NA,47bbdd72-d60c-4d98-bbcf-284d4712ac5b,2024-07-19 15:02:36 CEST
11019,"{""P0_Q0"":null,""age"":""46"",""gender"":""male"",""language"":""yes"",""amE"":""yes"",""comments"":""""}",survey,12,100326,0.0-3.0,NA,NA,NA,[],47bbdd72-d60c-4d98-bbcf-284d4712ac5b,2024-07-19 15:02:36 CEST
9533,"{""Q0"":""Sarah""}",survey-text,0,9620,0.0-0.0-0.0,TRUE,NA,NA,NA,ef2a8910-b03d-427e-a374-70f63dac2cc1,2024-07-19 15:10:50 CEST
1231,0,html-button-response,1,10856,0.0-0.0-3.0-0.0,NA,<p style='text-align:left'><b> Correct response! You are a human :) </b><br><br></p>,NA,NA,ef2a8910-b03d-427e-a374-70f63dac2cc1,2024-07-19 15:10:50 CEST
6887,0,html-button-response,2,17745,0.0-1.0,NA,"<h3>Instructions</h3>  <p style='text-align:left'>In this experiment, you will read nine questions asked by a speaker, as in this example, where Candy asks a question.</p>  <p style='text-align:left'> <b>Candy</b>: <i>Did Cassandra suggest that the house is big? </i> </p>  <p style='text-align:left'> We then ask you to judge what the speaker is asking about, for example: </p>  <p style='text-align:left'> Is Candy asking whether the house is big? </p>  <p style='text-align:left'>You give your response on a slider marked 'no' at one end and 'yes' at the other.</p>  <p style='text-align:left'>This experiment will take around 2 minutes, and you will be paid 40 cents.</p>  <p style='text-align:left' font size=""1"">By clicking on the button below, you agree to participate in this experiment, which is conducted by researchers at the University of Stuttgart. You may withdraw from this experiment at any time. The data collected will be anonymous and confidential. If you have any questions, you may contact the requester through Prolific's platform, or directly at st180735@stud.uni-stuttgart.de.</p>",NA,NA,ef2a8910-b03d-427e-a374-70f63dac2cc1,2024-07-19 15:10:50 CEST
10671,100,html-slider-response,3,28418,0.0-2.0-0.0,NA,<b>Isabel:</b><em>  Did Mia confirm that Greg bought a new car?</em> <br> <br> Is Isabel asking whether Greg bought a new car?,50,NA,ef2a8910-b03d-427e-a374-70f63dac2cc1,2024-07-19 15:10:50 CEST
5940,100,html-slider-response,4,34360,0.0-2.0-0.1,NA,<b>Charlotte:</b><em>  Did Sophia discover that Jack saw the murder?</em> <br> <br> Is Charlotte asking whether Jack saw the murder?,50,NA,ef2a8910-b03d-427e-a374-70f63dac2cc1,2024-07-19 15:10:50 CEST
6558,0,html-slider-response,5,40920,0.0-2.0-0.2,NA,<b>Robert:</b><em> Does Betsy have a cat?</em> <br> <br> Is Robert asking whether Betsy loves apples?,50,NA,ef2a8910-b03d-427e-a374-70f63dac2cc1,2024-07-19 15:10:50 CEST
5156,0,html-slider-response,6,46078,0.0-2.0-0.3,NA,"<b>Steven:</b><em> Was Ann, who stole the money, caught by the police?</em> <br> <br> Is Steven asking whether Ann stole the money?",50,NA,ef2a8910-b03d-427e-a374-70f63dac2cc1,2024-07-19 15:10:50 CEST
4870,0,html-slider-response,7,50950,0.0-2.0-0.4,NA,"<b>Nina:</b><em> Did the boss condemn Dustin, who lost his key?</em> <br> <br> Is Nina asking whether Dustin lost his key?",50,NA,ef2a8910-b03d-427e-a374-70f63dac2cc1,2024-07-19 15:10:50 CEST
7490,0,html-slider-response,8,58442,0.0-2.0-0.5,NA,<b>Alice:</b><em>  Did Tony confess that Lucy broke the plate?</em> <br> <br> Is Alice asking whether Lucy broke the plate?,50,NA,ef2a8910-b03d-427e-a374-70f63dac2cc1,2024-07-19 15:10:50 CEST
5519,100,html-slider-response,9,63963,0.0-2.0-0.6,NA,<b>Mary:</b><em> Did Arthur take a French course?</em> <br> <br> Is Mary asking whether Arthur took a French course?,50,NA,ef2a8910-b03d-427e-a374-70f63dac2cc1,2024-07-19 15:10:50 CEST
4912,100,html-slider-response,10,68878,0.0-2.0-0.7,NA,<b>Charlie:</b><em>  Is Emma right that Raul cheated on his wife?</em> <br> <br> Is Charlie asking whether Raul cheated on his wife?,50,NA,ef2a8910-b03d-427e-a374-70f63dac2cc1,2024-07-19 15:10:50 CEST
6360,0,html-slider-response,11,75239,0.0-2.0-0.8,NA,<b>Frank:</b><em>  Does Linda know that Danny ate the last cupcake?</em> <br> <br> Is Frank asking whether Danny ate the last cupcake?,50,NA,ef2a8910-b03d-427e-a374-70f63dac2cc1,2024-07-19 15:10:50 CEST
9345,"{""P0_Q0"":null,""age"":""22"",""gender"":""prefer not to say"",""language"":""yes"",""amE"":""yes"",""comments"":""""}",survey,12,84676,0.0-3.0,NA,NA,NA,[],ef2a8910-b03d-427e-a374-70f63dac2cc1,2024-07-19 15:10:50 CEST
6987,"{""Q0"":""Patricia""}",survey-text,0,6999,0.0-0.0-0.0,TRUE,NA,NA,NA,dacd7fed-285e-43df-a4d1-d99d09af9101,2024-07-19 15:11:39 CEST
905,0,html-button-response,1,7905,0.0-0.0-3.0-0.0,NA,<p style='text-align:left'><b> Correct response! You are a human :) </b><br><br></p>,NA,NA,dacd7fed-285e-43df-a4d1-d99d09af9101,2024-07-19 15:11:39 CEST
14523,0,html-button-response,2,22429,0.0-1.0,NA,"<h3>Instructions</h3>  <p style='text-align:left'>In this experiment, you will read nine questions asked by a speaker, as in this example, where Candy asks a question.</p>  <p style='text-align:left'> <b>Candy</b>: <i>Did Cassandra suggest that the house is big? </i> </p>  <p style='text-align:left'> We then ask you to judge what the speaker is asking about, for example: </p>  <p style='text-align:left'> Is Candy asking whether the house is big? </p>  <p style='text-align:left'>You give your response on a slider marked 'no' at one end and 'yes' at the other.</p>  <p style='text-align:left'>This experiment will take around 2 minutes, and you will be paid 40 cents.</p>  <p style='text-align:left' font size=""1"">By clicking on the button below, you agree to participate in this experiment, which is conducted by researchers at the University of Stuttgart. You may withdraw from this experiment at any time. The data collected will be anonymous and confidential. If you have any questions, you may contact the requester through Prolific's platform, or directly at st180735@stud.uni-stuttgart.de.</p>",NA,NA,dacd7fed-285e-43df-a4d1-d99d09af9101,2024-07-19 15:11:39 CEST
8981,0,html-slider-response,3,31411,0.0-2.0-0.0,NA,"<b>Noah:</b><em> Did Jack, who saw the murder, run away?</em> <br> <br> Is Noah asking whether Jack saw the murder?",50,NA,dacd7fed-285e-43df-a4d1-d99d09af9101,2024-07-19 15:11:39 CEST
6109,100,html-slider-response,4,37520,0.0-2.0-0.1,NA,<b>Mary:</b><em> Did Arthur take a French course?</em> <br> <br> Is Mary asking whether Arthur took a French course?,50,NA,dacd7fed-285e-43df-a4d1-d99d09af9101,2024-07-19 15:11:39 CEST
7265,0,html-slider-response,5,44787,0.0-2.0-0.2,NA,<b>Nina:</b><em>  Does David know that Ann stole the money?</em> <br> <br> Is Nina asking whether Ann stole the money?,50,NA,dacd7fed-285e-43df-a4d1-d99d09af9101,2024-07-19 15:11:39 CEST
7030,100,html-slider-response,6,51818,0.0-2.0-0.3,NA,<b>William:</b><em>  Did Tony confirm that Lucy broke the plate?</em> <br> <br> Is William asking whether Lucy broke the plate?,50,NA,dacd7fed-285e-43df-a4d1-d99d09af9101,2024-07-19 15:11:39 CEST
4573,0,html-slider-response,7,56392,0.0-2.0-0.4,NA,<b>Robert:</b><em> Does Betsy have a cat?</em> <br> <br> Is Robert asking whether Betsy loves apples?,50,NA,dacd7fed-285e-43df-a4d1-d99d09af9101,2024-07-19 15:11:39 CEST
7737,100,html-slider-response,8,64129,0.0-2.0-0.5,NA,<b>Isabel:</b><em>  Is Mia right that Greg bought a new car?</em> <br> <br> Is Isabel asking whether Greg bought a new car?,50,NA,dacd7fed-285e-43df-a4d1-d99d09af9101,2024-07-19 15:11:39 CEST
6959,0,html-slider-response,9,71089,0.0-2.0-0.6,NA,<b>Oliver:</b><em>  Did Patricia discover that Dustin lost his key?</em> <br> <br> Is Oliver asking whether Dustin lost his key?,50,NA,dacd7fed-285e-43df-a4d1-d99d09af9101,2024-07-19 15:11:39 CEST
11054,28,html-slider-response,10,82144,0.0-2.0-0.7,NA,<b>Steven:</b><em>  Did Linda confess that Danny ate the last cupcake?</em> <br> <br> Is Steven asking whether Danny ate the last cupcake?,50,NA,dacd7fed-285e-43df-a4d1-d99d09af9101,2024-07-19 15:11:39 CEST
5345,0,html-slider-response,11,87489,0.0-2.0-0.8,NA,"<b>Charlotte:</b><em> Did Ann criticize Raul, who cheated on his wife?</em> <br> <br> Is Charlotte asking whether Raul cheated on his wife?",50,NA,dacd7fed-285e-43df-a4d1-d99d09af9101,2024-07-19 15:11:39 CEST
10939,"{""P0_Q0"":null,""age"":""38"",""gender"":""female"",""language"":""yes"",""amE"":""yes"",""comments"":""None""}",survey,12,98462,0.0-3.0,NA,NA,NA,[],dacd7fed-285e-43df-a4d1-d99d09af9101,2024-07-19 15:11:39 CEST
9754,"{""Q0"":""Jennifer""}",survey-text,0,9793,0.0-0.0-0.0,TRUE,NA,NA,NA,0314903f-827c-4635-8656-bef690dba21c,2024-07-19 15:12:01 CEST
1919,0,html-button-response,1,11716,0.0-0.0-3.0-0.0,NA,<p style='text-align:left'><b> Correct response! You are a human :) </b><br><br></p>,NA,NA,0314903f-827c-4635-8656-bef690dba21c,2024-07-19 15:12:01 CEST
13413,0,html-button-response,2,25132,0.0-1.0,NA,"<h3>Instructions</h3>  <p style='text-align:left'>In this experiment, you will read nine questions asked by a speaker, as in this example, where Candy asks a question.</p>  <p style='text-align:left'> <b>Candy</b>: <i>Did Cassandra suggest that the house is big? </i> </p>  <p style='text-align:left'> We then ask you to judge what the speaker is asking about, for example: </p>  <p style='text-align:left'> Is Candy asking whether the house is big? </p>  <p style='text-align:left'>You give your response on a slider marked 'no' at one end and 'yes' at the other.</p>  <p style='text-align:left'>This experiment will take around 2 minutes, and you will be paid 40 cents.</p>  <p style='text-align:left' font size=""1"">By clicking on the button below, you agree to participate in this experiment, which is conducted by researchers at the University of Stuttgart. You may withdraw from this experiment at any time. The data collected will be anonymous and confidential. If you have any questions, you may contact the requester through Prolific's platform, or directly at st180735@stud.uni-stuttgart.de.</p>",NA,NA,0314903f-827c-4635-8656-bef690dba21c,2024-07-19 15:12:01 CEST
14882,0,html-slider-response,3,40020,0.0-2.0-0.0,NA,<b>Chloe:</b><em>  Did Patricia confirm that Dustin lost his key?</em> <br> <br> Is Chloe asking whether Dustin lost his key?,50,NA,0314903f-827c-4635-8656-bef690dba21c,2024-07-19 15:12:01 CEST
23120,100,html-slider-response,4,63149,0.0-2.0-0.1,NA,<b>Frank:</b><em>  Is Emma right that Raul cheated on his wife?</em> <br> <br> Is Frank asking whether Raul cheated on his wife?,50,NA,0314903f-827c-4635-8656-bef690dba21c,2024-07-19 15:12:01 CEST
5471,0,html-slider-response,5,68624,0.0-2.0-0.2,NA,<b>Robert:</b><em> Does Betsy have a cat?</em> <br> <br> Is Robert asking whether Betsy loves apples?,50,NA,0314903f-827c-4635-8656-bef690dba21c,2024-07-19 15:12:01 CEST
8078,0,html-slider-response,6,76706,0.0-2.0-0.3,NA,<b>Alice:</b><em>  Does Mia know that Greg bought a new car?</em> <br> <br> Is Alice asking whether Greg bought a new car?,50,NA,0314903f-827c-4635-8656-bef690dba21c,2024-07-19 15:12:01 CEST
12489,0,html-slider-response,7,89198,0.0-2.0-0.4,NA,"<b>Charlotte:</b><em> Did Jack, who saw the murder, run away?</em> <br> <br> Is Charlotte asking whether Jack saw the murder?",50,NA,0314903f-827c-4635-8656-bef690dba21c,2024-07-19 15:12:01 CEST
58039,0,html-slider-response,8,147241,0.0-2.0-0.5,NA,<b>Nina:</b><em>  Did Linda confess that Danny ate the last cupcake?</em> <br> <br> Is Nina asking whether Danny ate the last cupcake?,50,NA,0314903f-827c-4635-8656-bef690dba21c,2024-07-19 15:12:01 CEST
8090,0,html-slider-response,9,155336,0.0-2.0-0.6,NA,"<b>Oliver:</b><em> Did the manager report Ann, who stole the money?</em> <br> <br> Is Oliver asking whether Ann stole the money?",50,NA,0314903f-827c-4635-8656-bef690dba21c,2024-07-19 15:12:01 CEST
35404,100,html-slider-response,10,190744,0.0-2.0-0.7,NA,<b>Mary:</b><em> Did Arthur take a French course?</em> <br> <br> Is Mary asking whether Arthur took a French course?,50,NA,0314903f-827c-4635-8656-bef690dba21c,2024-07-19 15:12:01 CEST
7714,0,html-slider-response,11,198461,0.0-2.0-0.8,NA,<b>Ken:</b><em>  Did Tony discover that Lucy broke the plate?</em> <br> <br> Is Ken asking whether Lucy broke the plate?,50,NA,0314903f-827c-4635-8656-bef690dba21c,2024-07-19 15:12:01 CEST
23487,"{""P0_Q0"":null,""age"":""41"",""gender"":""female"",""language"":""yes"",""amE"":""yes"",""comments"":""N/A""}",survey,12,222116,0.0-3.0,NA,NA,NA,[],0314903f-827c-4635-8656-bef690dba21c,2024-07-19 15:12:01 CEST
6873,"{""Q0"":""Linda""}",survey-text,0,6878,0.0-0.0-0.0,TRUE,NA,NA,NA,bd824dbb-681c-4e53-a52a-27ab565c18ba,2024-07-19 15:15:47 CEST
1446,0,html-button-response,1,8325,0.0-0.0-3.0-0.0,NA,<p style='text-align:left'><b> Correct response! You are a human :) </b><br><br></p>,NA,NA,bd824dbb-681c-4e53-a52a-27ab565c18ba,2024-07-19 15:15:47 CEST
13045,0,html-button-response,2,21371,0.0-1.0,NA,"<h3>Instructions</h3>  <p style='text-align:left'>In this experiment, you will read nine questions asked by a speaker, as in this example, where Candy asks a question.</p>  <p style='text-align:left'> <b>Candy</b>: <i>Did Cassandra suggest that the house is big? </i> </p>  <p style='text-align:left'> We then ask you to judge what the speaker is asking about, for example: </p>  <p style='text-align:left'> Is Candy asking whether the house is big? </p>  <p style='text-align:left'>You give your response on a slider marked 'no' at one end and 'yes' at the other.</p>  <p style='text-align:left'>This experiment will take around 2 minutes, and you will be paid 40 cents.</p>  <p style='text-align:left' font size=""1"">By clicking on the button below, you agree to participate in this experiment, which is conducted by researchers at the University of Stuttgart. You may withdraw from this experiment at any time. The data collected will be anonymous and confidential. If you have any questions, you may contact the requester through Prolific's platform, or directly at st180735@stud.uni-stuttgart.de.</p>",NA,NA,bd824dbb-681c-4e53-a52a-27ab565c18ba,2024-07-19 15:15:47 CEST
11031,100,html-slider-response,3,32406,0.0-2.0-0.0,NA,<b>Nina:</b><em>  Did David confess that Ann stole the money?</em> <br> <br> Is Nina asking whether Ann stole the money?,50,NA,bd824dbb-681c-4e53-a52a-27ab565c18ba,2024-07-19 15:15:47 CEST
8136,0,html-slider-response,4,40543,0.0-2.0-0.1,NA,"<b>William:</b><em> Does the neighbor envy Greg, who bought a new car?</em> <br> <br> Is William asking whether Greg bought a new car?",50,NA,bd824dbb-681c-4e53-a52a-27ab565c18ba,2024-07-19 15:15:47 CEST
7963,100,html-slider-response,5,48508,0.0-2.0-0.2,NA,<b>Frank:</b><em>  Did Emma confirm that Raul cheated on his wife?</em> <br> <br> Is Frank asking whether Raul cheated on his wife?,50,NA,bd824dbb-681c-4e53-a52a-27ab565c18ba,2024-07-19 15:15:47 CEST
11977,50,html-slider-response,6,60486,0.0-2.0-0.3,NA,<b>Bob:</b><em>  Is Patricia right that Dustin lost his key?</em> <br> <br> Is Bob asking whether Dustin lost his key?,50,NA,bd824dbb-681c-4e53-a52a-27ab565c18ba,2024-07-19 15:15:47 CEST
6003,0,html-slider-response,7,66492,0.0-2.0-0.4,NA,"<b>Isabel:</b><em> Did Lucy, who broke the plate, apologize?</em> <br> <br> Is Isabel asking whether Lucy broke the plate?",50,NA,bd824dbb-681c-4e53-a52a-27ab565c18ba,2024-07-19 15:15:47 CEST
30918,49,html-slider-response,8,97412,0.0-2.0-0.5,NA,<b>Nora:</b><em>  Does Linda know that Danny ate the last cupcake?</em> <br> <br> Is Nora asking whether Danny ate the last cupcake?,50,NA,bd824dbb-681c-4e53-a52a-27ab565c18ba,2024-07-19 15:15:47 CEST
7072,0,html-slider-response,9,104485,0.0-2.0-0.6,NA,<b>Robert:</b><em> Does Betsy have a cat?</em> <br> <br> Is Robert asking whether Betsy loves apples?,50,NA,bd824dbb-681c-4e53-a52a-27ab565c18ba,2024-07-19 15:15:47 CEST
4193,100,html-slider-response,10,108679,0.0-2.0-0.7,NA,<b>Mary:</b><em> Did Arthur take a French course?</em> <br> <br> Is Mary asking whether Arthur took a French course?,50,NA,bd824dbb-681c-4e53-a52a-27ab565c18ba,2024-07-19 15:15:47 CEST
7232,51,html-slider-response,11,115913,0.0-2.0-0.8,NA,<b>Alice:</b><em>  Did Sophia discover that Jack saw the murder?</em> <br> <br> Is Alice asking whether Jack saw the murder?,50,NA,bd824dbb-681c-4e53-a52a-27ab565c18ba,2024-07-19 15:15:47 CEST
15758,"{""P0_Q0"":null,""age"":""34"",""gender"":""male"",""language"":""yes"",""amE"":""yes"",""comments"":""""}",survey,12,131723,0.0-3.0,NA,NA,NA,[],bd824dbb-681c-4e53-a52a-27ab565c18ba,2024-07-19 15:15:47 CEST
7406,"{""Q0"":""Linda""}",survey-text,0,7418,0.0-0.0-0.0,TRUE,NA,NA,NA,e3701185-7ae1-4212-a3dc-cf9a092f288b,2024-07-19 15:17:14 CEST
1755,0,html-button-response,1,9174,0.0-0.0-3.0-0.0,NA,<p style='text-align:left'><b> Correct response! You are a human :) </b><br><br></p>,NA,NA,e3701185-7ae1-4212-a3dc-cf9a092f288b,2024-07-19 15:17:14 CEST
25526,0,html-button-response,2,34702,0.0-1.0,NA,"<h3>Instructions</h3>  <p style='text-align:left'>In this experiment, you will read nine questions asked by a speaker, as in this example, where Candy asks a question.</p>  <p style='text-align:left'> <b>Candy</b>: <i>Did Cassandra suggest that the house is big? </i> </p>  <p style='text-align:left'> We then ask you to judge what the speaker is asking about, for example: </p>  <p style='text-align:left'> Is Candy asking whether the house is big? </p>  <p style='text-align:left'>You give your response on a slider marked 'no' at one end and 'yes' at the other.</p>  <p style='text-align:left'>This experiment will take around 2 minutes, and you will be paid 40 cents.</p>  <p style='text-align:left' font size=""1"">By clicking on the button below, you agree to participate in this experiment, which is conducted by researchers at the University of Stuttgart. You may withdraw from this experiment at any time. The data collected will be anonymous and confidential. If you have any questions, you may contact the requester through Prolific's platform, or directly at st180735@stud.uni-stuttgart.de.</p>",NA,NA,e3701185-7ae1-4212-a3dc-cf9a092f288b,2024-07-19 15:17:14 CEST
15190,100,html-slider-response,3,49894,0.0-2.0-0.0,NA,<b>Dawn:</b><em>  Is Sophia right that Jack saw the murder?</em> <br> <br> Is Dawn asking whether Jack saw the murder?,50,NA,e3701185-7ae1-4212-a3dc-cf9a092f288b,2024-07-19 15:17:14 CEST
9191,100,html-slider-response,4,59085,0.0-2.0-0.1,NA,<b>Mary:</b><em> Did Arthur take a French course?</em> <br> <br> Is Mary asking whether Arthur took a French course?,50,NA,e3701185-7ae1-4212-a3dc-cf9a092f288b,2024-07-19 15:17:14 CEST
8983,0,html-slider-response,5,68070,0.0-2.0-0.2,NA,"<b>Frank:</b><em> Did Lucy forgive Danny, who ate the last cupcake?</em> <br> <br> Is Frank asking whether Danny ate the last cupcake?",50,NA,e3701185-7ae1-4212-a3dc-cf9a092f288b,2024-07-19 15:17:14 CEST
7911,0,html-slider-response,6,75981,0.0-2.0-0.3,NA,<b>Chloe:</b><em>  Did Patricia confess that Dustin lost his key?</em> <br> <br> Is Chloe asking whether Dustin lost his key?,50,NA,e3701185-7ae1-4212-a3dc-cf9a092f288b,2024-07-19 15:17:14 CEST
4574,0,html-slider-response,7,80557,0.0-2.0-0.4,NA,"<b>Charlie:</b><em> Did Lucy, who broke the plate, apologize?</em> <br> <br> Is Charlie asking whether Lucy broke the plate?",50,NA,e3701185-7ae1-4212-a3dc-cf9a092f288b,2024-07-19 15:17:14 CEST
6494,67,html-slider-response,8,87053,0.0-2.0-0.5,NA,<b>Isabel:</b><em>  Did David confirm that Ann stole the money?</em> <br> <br> Is Isabel asking whether Ann stole the money?,50,NA,e3701185-7ae1-4212-a3dc-cf9a092f288b,2024-07-19 15:17:14 CEST
4630,0,html-slider-response,9,91685,0.0-2.0-0.6,NA,<b>Nora:</b><em>  Does Emma know that Raul cheated on his wife?</em> <br> <br> Is Nora asking whether Raul cheated on his wife?,50,NA,e3701185-7ae1-4212-a3dc-cf9a092f288b,2024-07-19 15:17:14 CEST
3863,0,html-slider-response,10,95549,0.0-2.0-0.7,NA,<b>Robert:</b><em> Does Betsy have a cat?</em> <br> <br> Is Robert asking whether Betsy loves apples?,50,NA,e3701185-7ae1-4212-a3dc-cf9a092f288b,2024-07-19 15:17:14 CEST
6823,0,html-slider-response,11,102373,0.0-2.0-0.8,NA,<b>Clare:</b><em>  Did Mia discover that Greg bought a new car?</em> <br> <br> Is Clare asking whether Greg bought a new car?,50,NA,e3701185-7ae1-4212-a3dc-cf9a092f288b,2024-07-19 15:17:14 CEST
25688,"{""P0_Q0"":null,""age"":""36"",""gender"":""female"",""language"":""yes"",""amE"":""yes"",""comments"":""This was an interesting study.""}",survey,12,128112,0.0-3.0,NA,NA,NA,[],e3701185-7ae1-4212-a3dc-cf9a092f288b,2024-07-19 15:17:14 CEST
18224,"{""Q0"":""Mary""}",survey-text,0,18264,0.0-0.0-0.0,TRUE,NA,NA,NA,a7571470-cf5b-4beb-8047-992865eaf3d1,2024-07-19 15:20:52 CEST
2511,0,html-button-response,1,20778,0.0-0.0-3.0-0.0,NA,<p style='text-align:left'><b> Correct response! You are a human :) </b><br><br></p>,NA,NA,a7571470-cf5b-4beb-8047-992865eaf3d1,2024-07-19 15:20:52 CEST
10558,0,html-button-response,2,31338,0.0-1.0,NA,"<h3>Instructions</h3>  <p style='text-align:left'>In this experiment, you will read nine questions asked by a speaker, as in this example, where Candy asks a question.</p>  <p style='text-align:left'> <b>Candy</b>: <i>Did Cassandra suggest that the house is big? </i> </p>  <p style='text-align:left'> We then ask you to judge what the speaker is asking about, for example: </p>  <p style='text-align:left'> Is Candy asking whether the house is big? </p>  <p style='text-align:left'>You give your response on a slider marked 'no' at one end and 'yes' at the other.</p>  <p style='text-align:left'>This experiment will take around 2 minutes, and you will be paid 40 cents.</p>  <p style='text-align:left' font size=""1"">By clicking on the button below, you agree to participate in this experiment, which is conducted by researchers at the University of Stuttgart. You may withdraw from this experiment at any time. The data collected will be anonymous and confidential. If you have any questions, you may contact the requester through Prolific's platform, or directly at st180735@stud.uni-stuttgart.de.</p>",NA,NA,a7571470-cf5b-4beb-8047-992865eaf3d1,2024-07-19 15:20:52 CEST
24636,0,html-slider-response,3,55977,0.0-2.0-0.0,NA,<b>Noah:</b><em>  Did Mia discover that Greg bought a new car?</em> <br> <br> Is Noah asking whether Greg bought a new car?,50,NA,a7571470-cf5b-4beb-8047-992865eaf3d1,2024-07-19 15:20:52 CEST
19583,0,html-slider-response,4,75562,0.0-2.0-0.1,NA,"<b>Vincent:</b><em> Did Ann criticize Raul, who cheated on his wife?</em> <br> <br> Is Vincent asking whether Raul cheated on his wife?",50,NA,a7571470-cf5b-4beb-8047-992865eaf3d1,2024-07-19 15:20:52 CEST
14938,0,html-slider-response,5,90503,0.0-2.0-0.2,NA,<b>Robert:</b><em> Does Betsy have a cat?</em> <br> <br> Is Robert asking whether Betsy loves apples?,50,NA,a7571470-cf5b-4beb-8047-992865eaf3d1,2024-07-19 15:20:52 CEST
10978,100,html-slider-response,6,101482,0.0-2.0-0.3,NA,<b>Mary:</b><em> Did Arthur take a French course?</em> <br> <br> Is Mary asking whether Arthur took a French course?,50,NA,a7571470-cf5b-4beb-8047-992865eaf3d1,2024-07-19 15:20:52 CEST
75833,32,html-slider-response,7,177317,0.0-2.0-0.4,NA,<b>Nina:</b><em>  Did David confirm that Ann stole the money?</em> <br> <br> Is Nina asking whether Ann stole the money?,50,NA,a7571470-cf5b-4beb-8047-992865eaf3d1,2024-07-19 15:20:52 CEST
29688,100,html-slider-response,8,207008,0.0-2.0-0.5,NA,<b>Chloe:</b><em>  Is Patricia right that Dustin lost his key?</em> <br> <br> Is Chloe asking whether Dustin lost his key?,50,NA,a7571470-cf5b-4beb-8047-992865eaf3d1,2024-07-19 15:20:52 CEST
15306,0,html-slider-response,9,222316,0.0-2.0-0.6,NA,"<b>Steven:</b><em> Does Danny, who ate the last cupcake, have a sweet tooth?</em> <br> <br> Is Steven asking whether Danny ate the last cupcake?",50,NA,a7571470-cf5b-4beb-8047-992865eaf3d1,2024-07-19 15:20:52 CEST
18255,0,html-slider-response,10,240573,0.0-2.0-0.7,NA,<b>Frank:</b><em>  Did Tony confess that Lucy broke the plate?</em> <br> <br> Is Frank asking whether Lucy broke the plate?,50,NA,a7571470-cf5b-4beb-8047-992865eaf3d1,2024-07-19 15:20:52 CEST
10771,0,html-slider-response,11,251346,0.0-2.0-0.8,NA,<b>Ken:</b><em>  Does Sophia know that Jack saw the murder?</em> <br> <br> Is Ken asking whether Jack saw the murder?,50,NA,a7571470-cf5b-4beb-8047-992865eaf3d1,2024-07-19 15:20:52 CEST
18793,"{""P0_Q0"":null,""age"":""55"",""gender"":""female"",""language"":""yes"",""amE"":""yes"",""comments"":""""}",survey,12,270231,0.0-3.0,NA,NA,NA,[],a7571470-cf5b-4beb-8047-992865eaf3d1,2024-07-19 15:20:52 CEST
34832,"{""Q0"":""Barbara""}",survey-text,0,34937,0.0-0.0-0.0,TRUE,NA,NA,NA,a21993eb-179b-4aab-b5e0-557df4c5fd80,2024-07-19 15:21:01 CEST
1277,0,html-button-response,1,36218,0.0-0.0-3.0-0.0,NA,<p style='text-align:left'><b> Correct response! You are a human :) </b><br><br></p>,NA,NA,a21993eb-179b-4aab-b5e0-557df4c5fd80,2024-07-19 15:21:01 CEST
7596,0,html-button-response,2,43815,0.0-1.0,NA,"<h3>Instructions</h3>  <p style='text-align:left'>In this experiment, you will read nine questions asked by a speaker, as in this example, where Candy asks a question.</p>  <p style='text-align:left'> <b>Candy</b>: <i>Did Cassandra suggest that the house is big? </i> </p>  <p style='text-align:left'> We then ask you to judge what the speaker is asking about, for example: </p>  <p style='text-align:left'> Is Candy asking whether the house is big? </p>  <p style='text-align:left'>You give your response on a slider marked 'no' at one end and 'yes' at the other.</p>  <p style='text-align:left'>This experiment will take around 2 minutes, and you will be paid 40 cents.</p>  <p style='text-align:left' font size=""1"">By clicking on the button below, you agree to participate in this experiment, which is conducted by researchers at the University of Stuttgart. You may withdraw from this experiment at any time. The data collected will be anonymous and confidential. If you have any questions, you may contact the requester through Prolific's platform, or directly at st180735@stud.uni-stuttgart.de.</p>",NA,NA,a21993eb-179b-4aab-b5e0-557df4c5fd80,2024-07-19 15:21:01 CEST
4589,100,html-slider-response,3,48408,0.0-2.0-0.0,NA,<b>Bob:</b><em>  Did Patricia discover that Dustin lost his key?</em> <br> <br> Is Bob asking whether Dustin lost his key?,50,NA,a21993eb-179b-4aab-b5e0-557df4c5fd80,2024-07-19 15:21:01 CEST
5923,0,html-slider-response,4,54333,0.0-2.0-0.1,NA,"<b>Nora:</b><em> Did the police find Jack, who saw the murder?</em> <br> <br> Is Nora asking whether Jack saw the murder?",50,NA,a21993eb-179b-4aab-b5e0-557df4c5fd80,2024-07-19 15:21:01 CEST
2862,0,html-slider-response,5,57198,0.0-2.0-0.2,NA,<b>Robert:</b><em> Does Betsy have a cat?</em> <br> <br> Is Robert asking whether Betsy loves apples?,50,NA,a21993eb-179b-4aab-b5e0-557df4c5fd80,2024-07-19 15:21:01 CEST
3168,0,html-slider-response,6,60369,0.0-2.0-0.3,NA,<b>Oliver:</b><em>  Did Mia confess that Greg bought a new car?</em> <br> <br> Is Oliver asking whether Greg bought a new car?,50,NA,a21993eb-179b-4aab-b5e0-557df4c5fd80,2024-07-19 15:21:01 CEST
4247,100,html-slider-response,7,64619,0.0-2.0-0.4,NA,<b>Grace:</b><em>  Is David right that Ann stole the money?</em> <br> <br> Is Grace asking whether Ann stole the money?,50,NA,a21993eb-179b-4aab-b5e0-557df4c5fd80,2024-07-19 15:21:01 CEST
7477,0,html-slider-response,8,72099,0.0-2.0-0.5,NA,"<b>Charlie:</b><em> Does Danny, who ate the last cupcake, have a sweet tooth?</em> <br> <br> Is Charlie asking whether Danny ate the last cupcake?",50,NA,a21993eb-179b-4aab-b5e0-557df4c5fd80,2024-07-19 15:21:01 CEST
4241,100,html-slider-response,9,76341,0.0-2.0-0.6,NA,<b>Mary:</b><em> Did Arthur take a French course?</em> <br> <br> Is Mary asking whether Arthur took a French course?,50,NA,a21993eb-179b-4aab-b5e0-557df4c5fd80,2024-07-19 15:21:01 CEST
4049,0,html-slider-response,10,80391,0.0-2.0-0.7,NA,<b>Clare:</b><em>  Did Emma confirm that Raul cheated on his wife?</em> <br> <br> Is Clare asking whether Raul cheated on his wife?,50,NA,a21993eb-179b-4aab-b5e0-557df4c5fd80,2024-07-19 15:21:01 CEST
3723,0,html-slider-response,11,84116,0.0-2.0-0.8,NA,<b>Vincent:</b><em>  Does Tony know that Lucy broke the plate?</em> <br> <br> Is Vincent asking whether Lucy broke the plate?,50,NA,a21993eb-179b-4aab-b5e0-557df4c5fd80,2024-07-19 15:21:01 CEST
5938,"{""P0_Q0"":null,""age"":""32"",""gender"":""female"",""language"":""yes"",""amE"":""yes"",""comments"":""""}",survey,12,90194,0.0-3.0,NA,NA,NA,[],a21993eb-179b-4aab-b5e0-557df4c5fd80,2024-07-19 15:21:01 CEST
5879,"{""Q0"":""barbara""}",survey-text,0,5892,0.0-0.0-0.0,TRUE,NA,NA,NA,cdf550ac-024f-45dd-9886-5deec5093a41,2024-07-19 15:21:20 CEST
1150,0,html-button-response,1,7044,0.0-0.0-3.0-0.0,NA,<p style='text-align:left'><b> Correct response! You are a human :) </b><br><br></p>,NA,NA,cdf550ac-024f-45dd-9886-5deec5093a41,2024-07-19 15:21:20 CEST
7400,0,html-button-response,2,14445,0.0-1.0,NA,"<h3>Instructions</h3>  <p style='text-align:left'>In this experiment, you will read nine questions asked by a speaker, as in this example, where Candy asks a question.</p>  <p style='text-align:left'> <b>Candy</b>: <i>Did Cassandra suggest that the house is big? </i> </p>  <p style='text-align:left'> We then ask you to judge what the speaker is asking about, for example: </p>  <p style='text-align:left'> Is Candy asking whether the house is big? </p>  <p style='text-align:left'>You give your response on a slider marked 'no' at one end and 'yes' at the other.</p>  <p style='text-align:left'>This experiment will take around 2 minutes, and you will be paid 40 cents.</p>  <p style='text-align:left' font size=""1"">By clicking on the button below, you agree to participate in this experiment, which is conducted by researchers at the University of Stuttgart. You may withdraw from this experiment at any time. The data collected will be anonymous and confidential. If you have any questions, you may contact the requester through Prolific's platform, or directly at st180735@stud.uni-stuttgart.de.</p>",NA,NA,cdf550ac-024f-45dd-9886-5deec5093a41,2024-07-19 15:21:20 CEST
9078,87,html-slider-response,3,23524,0.0-2.0-0.0,NA,<b>Steven:</b><em>  Did David discover that Ann stole the money?</em> <br> <br> Is Steven asking whether Ann stole the money?,50,NA,cdf550ac-024f-45dd-9886-5deec5093a41,2024-07-19 15:21:20 CEST
4831,75,html-slider-response,4,28356,0.0-2.0-0.1,NA,<b>Oliver:</b><em>  Does Linda know that Danny ate the last cupcake?</em> <br> <br> Is Oliver asking whether Danny ate the last cupcake?,50,NA,cdf550ac-024f-45dd-9886-5deec5093a41,2024-07-19 15:21:20 CEST
5423,82,html-slider-response,5,33780,0.0-2.0-0.2,NA,<b>William:</b><em>  Is Mia right that Greg bought a new car?</em> <br> <br> Is William asking whether Greg bought a new car?,50,NA,cdf550ac-024f-45dd-9886-5deec5093a41,2024-07-19 15:21:20 CEST
3215,0,html-slider-response,6,36995,0.0-2.0-0.3,NA,<b>Robert:</b><em> Does Betsy have a cat?</em> <br> <br> Is Robert asking whether Betsy loves apples?,50,NA,cdf550ac-024f-45dd-9886-5deec5093a41,2024-07-19 15:21:20 CEST
3255,88,html-slider-response,7,40251,0.0-2.0-0.4,NA,<b>Mary:</b><em> Did Arthur take a French course?</em> <br> <br> Is Mary asking whether Arthur took a French course?,50,NA,cdf550ac-024f-45dd-9886-5deec5093a41,2024-07-19 15:21:20 CEST
4335,93,html-slider-response,8,44588,0.0-2.0-0.5,NA,<b>Charlotte:</b><em>  Did Tony confirm that Lucy broke the plate?</em> <br> <br> Is Charlotte asking whether Lucy broke the plate?,50,NA,cdf550ac-024f-45dd-9886-5deec5093a41,2024-07-19 15:21:20 CEST
3840,88,html-slider-response,9,48428,0.0-2.0-0.6,NA,<b>Frank:</b><em>  Did Sophia confess that Jack saw the murder?</em> <br> <br> Is Frank asking whether Jack saw the murder?,50,NA,cdf550ac-024f-45dd-9886-5deec5093a41,2024-07-19 15:21:20 CEST
6753,4,html-slider-response,10,55181,0.0-2.0-0.7,NA,"<b>Leo:</b><em> Does Dustin, who lost his key, feel upset?</em> <br> <br> Is Leo asking whether Dustin lost his key?",50,NA,cdf550ac-024f-45dd-9886-5deec5093a41,2024-07-19 15:21:20 CEST
4589,8,html-slider-response,11,59771,0.0-2.0-0.8,NA,"<b>Clare:</b><em> Did Ann criticize Raul, who cheated on his wife?</em> <br> <br> Is Clare asking whether Raul cheated on his wife?",50,NA,cdf550ac-024f-45dd-9886-5deec5093a41,2024-07-19 15:21:20 CEST
7117,"{""P0_Q0"":null,""age"":""36"",""gender"":""female"",""language"":""yes"",""amE"":""yes"",""comments"":""""}",survey,12,66923,0.0-3.0,NA,NA,NA,[],cdf550ac-024f-45dd-9886-5deec5093a41,2024-07-19 15:21:20 CEST
6235,"{""Q0"":""Sarah""}",survey-text,0,6244,0.0-0.0-0.0,TRUE,NA,NA,NA,c66246f1-aa56-4bcf-a44a-299964ec9ee4,2024-07-19 15:22:37 CEST
2489,0,html-button-response,1,8736,0.0-0.0-3.0-0.0,NA,<p style='text-align:left'><b> Correct response! You are a human :) </b><br><br></p>,NA,NA,c66246f1-aa56-4bcf-a44a-299964ec9ee4,2024-07-19 15:22:37 CEST
1469,0,html-button-response,2,10207,0.0-1.0,NA,"<h3>Instructions</h3>  <p style='text-align:left'>In this experiment, you will read nine questions asked by a speaker, as in this example, where Candy asks a question.</p>  <p style='text-align:left'> <b>Candy</b>: <i>Did Cassandra suggest that the house is big? </i> </p>  <p style='text-align:left'> We then ask you to judge what the speaker is asking about, for example: </p>  <p style='text-align:left'> Is Candy asking whether the house is big? </p>  <p style='text-align:left'>You give your response on a slider marked 'no' at one end and 'yes' at the other.</p>  <p style='text-align:left'>This experiment will take around 2 minutes, and you will be paid 40 cents.</p>  <p style='text-align:left' font size=""1"">By clicking on the button below, you agree to participate in this experiment, which is conducted by researchers at the University of Stuttgart. You may withdraw from this experiment at any time. The data collected will be anonymous and confidential. If you have any questions, you may contact the requester through Prolific's platform, or directly at st180735@stud.uni-stuttgart.de.</p>",NA,NA,c66246f1-aa56-4bcf-a44a-299964ec9ee4,2024-07-19 15:22:37 CEST
6132,100,html-slider-response,3,16343,0.0-2.0-0.0,NA,<b>Steven:</b><em>  Is Tony right that Lucy broke the plate?</em> <br> <br> Is Steven asking whether Lucy broke the plate?,50,NA,c66246f1-aa56-4bcf-a44a-299964ec9ee4,2024-07-19 15:22:37 CEST
6148,0,html-slider-response,4,22493,0.0-2.0-0.1,NA,<b>Chloe:</b><em>  Did Linda discover that Danny ate the last cupcake?</em> <br> <br> Is Chloe asking whether Danny ate the last cupcake?,50,NA,c66246f1-aa56-4bcf-a44a-299964ec9ee4,2024-07-19 15:22:37 CEST
6938,72,html-slider-response,5,29434,0.0-2.0-0.2,NA,<b>Bob:</b><em>  Did David confirm that Ann stole the money?</em> <br> <br> Is Bob asking whether Ann stole the money?,50,NA,c66246f1-aa56-4bcf-a44a-299964ec9ee4,2024-07-19 15:22:37 CEST
3211,0,html-slider-response,6,32647,0.0-2.0-0.3,NA,<b>Robert:</b><em> Does Betsy have a cat?</em> <br> <br> Is Robert asking whether Betsy loves apples?,50,NA,c66246f1-aa56-4bcf-a44a-299964ec9ee4,2024-07-19 15:22:37 CEST
4677,0,html-slider-response,7,37326,0.0-2.0-0.4,NA,"<b>Charlotte:</b><em> Does Greg, who bought a new car, have a driver's license?</em> <br> <br> Is Charlotte asking whether Greg bought a new car?",50,NA,c66246f1-aa56-4bcf-a44a-299964ec9ee4,2024-07-19 15:22:37 CEST
6913,100,html-slider-response,8,44242,0.0-2.0-0.5,NA,<b>Mary:</b><em> Did Arthur take a French course?</em> <br> <br> Is Mary asking whether Arthur took a French course?,50,NA,c66246f1-aa56-4bcf-a44a-299964ec9ee4,2024-07-19 15:22:37 CEST
3656,0,html-slider-response,9,47901,0.0-2.0-0.6,NA,"<b>Charlie:</b><em> Did the boss condemn Dustin, who lost his key?</em> <br> <br> Is Charlie asking whether Dustin lost his key?",50,NA,c66246f1-aa56-4bcf-a44a-299964ec9ee4,2024-07-19 15:22:37 CEST
5262,0,html-slider-response,10,53166,0.0-2.0-0.7,NA,<b>Clare:</b><em>  Does Emma know that Raul cheated on his wife?</em> <br> <br> Is Clare asking whether Raul cheated on his wife?,50,NA,c66246f1-aa56-4bcf-a44a-299964ec9ee4,2024-07-19 15:22:37 CEST
7631,8,html-slider-response,11,60800,0.0-2.0-0.8,NA,<b>William:</b><em>  Did Sophia confess that Jack saw the murder?</em> <br> <br> Is William asking whether Jack saw the murder?,50,NA,c66246f1-aa56-4bcf-a44a-299964ec9ee4,2024-07-19 15:22:37 CEST
6979,"{""P0_Q0"":null,""age"":""40"",""gender"":""male"",""language"":""yes"",""amE"":""no"",""comments"":""""}",survey,12,67820,0.0-3.0,NA,NA,NA,[],c66246f1-aa56-4bcf-a44a-299964ec9ee4,2024-07-19 15:22:37 CEST
12740,"{""Q0"":""Jennifer""}",survey-text,0,12976,0.0-0.0-0.0,TRUE,NA,NA,NA,52e88564-5e8d-4a1c-b87d-bafb576c6faa,2024-07-19 15:23:09 CEST
2446,0,html-button-response,1,15424,0.0-0.0-3.0-0.0,NA,<p style='text-align:left'><b> Correct response! You are a human :) </b><br><br></p>,NA,NA,52e88564-5e8d-4a1c-b87d-bafb576c6faa,2024-07-19 15:23:09 CEST
23153,0,html-button-response,2,38579,0.0-1.0,NA,"<h3>Instructions</h3>  <p style='text-align:left'>In this experiment, you will read nine questions asked by a speaker, as in this example, where Candy asks a question.</p>  <p style='text-align:left'> <b>Candy</b>: <i>Did Cassandra suggest that the house is big? </i> </p>  <p style='text-align:left'> We then ask you to judge what the speaker is asking about, for example: </p>  <p style='text-align:left'> Is Candy asking whether the house is big? </p>  <p style='text-align:left'>You give your response on a slider marked 'no' at one end and 'yes' at the other.</p>  <p style='text-align:left'>This experiment will take around 2 minutes, and you will be paid 40 cents.</p>  <p style='text-align:left' font size=""1"">By clicking on the button below, you agree to participate in this experiment, which is conducted by researchers at the University of Stuttgart. You may withdraw from this experiment at any time. The data collected will be anonymous and confidential. If you have any questions, you may contact the requester through Prolific's platform, or directly at st180735@stud.uni-stuttgart.de.</p>",NA,NA,52e88564-5e8d-4a1c-b87d-bafb576c6faa,2024-07-19 15:23:09 CEST
6773,0,html-slider-response,3,45354,0.0-2.0-0.0,NA,<b>Robert:</b><em> Does Betsy have a cat?</em> <br> <br> Is Robert asking whether Betsy loves apples?,50,NA,52e88564-5e8d-4a1c-b87d-bafb576c6faa,2024-07-19 15:23:09 CEST
6098,100,html-slider-response,4,51453,0.0-2.0-0.1,NA,<b>Oliver:</b><em>  Did Tony discover that Lucy broke the plate?</em> <br> <br> Is Oliver asking whether Lucy broke the plate?,50,NA,52e88564-5e8d-4a1c-b87d-bafb576c6faa,2024-07-19 15:23:09 CEST
21540,57,html-slider-response,5,72996,0.0-2.0-0.2,NA,<b>William:</b><em>  Is Linda right that Danny ate the last cupcake?</em> <br> <br> Is William asking whether Danny ate the last cupcake?,50,NA,52e88564-5e8d-4a1c-b87d-bafb576c6faa,2024-07-19 15:23:09 CEST
13701,0,html-slider-response,6,86699,0.0-2.0-0.3,NA,<b>Noah:</b><em>  Does Emma know that Raul cheated on his wife?</em> <br> <br> Is Noah asking whether Raul cheated on his wife?,50,NA,52e88564-5e8d-4a1c-b87d-bafb576c6faa,2024-07-19 15:23:09 CEST
29236,0,html-slider-response,7,115937,0.0-2.0-0.4,NA,<b>Frank:</b><em>  Did Mia confirm that Greg bought a new car?</em> <br> <br> Is Frank asking whether Greg bought a new car?,50,NA,52e88564-5e8d-4a1c-b87d-bafb576c6faa,2024-07-19 15:23:09 CEST
5910,100,html-slider-response,8,121848,0.0-2.0-0.5,NA,<b>Mary:</b><em> Did Arthur take a French course?</em> <br> <br> Is Mary asking whether Arthur took a French course?,50,NA,52e88564-5e8d-4a1c-b87d-bafb576c6faa,2024-07-19 15:23:09 CEST
52675,0,html-slider-response,9,174525,0.0-2.0-0.6,NA,"<b>Alice:</b><em> Does Dustin, who lost his key, feel upset?</em> <br> <br> Is Alice asking whether Dustin lost his key?",50,NA,52e88564-5e8d-4a1c-b87d-bafb576c6faa,2024-07-19 15:23:09 CEST
5026,0,html-slider-response,10,179552,0.0-2.0-0.7,NA,<b>Charlotte:</b><em>  Did Sophia confess that Jack saw the murder?</em> <br> <br> Is Charlotte asking whether Jack saw the murder?,50,NA,52e88564-5e8d-4a1c-b87d-bafb576c6faa,2024-07-19 15:23:09 CEST
29913,0,html-slider-response,11,209466,0.0-2.0-0.8,NA,"<b>Nina:</b><em> Did the manager report Ann, who stole the money?</em> <br> <br> Is Nina asking whether Ann stole the money?",50,NA,52e88564-5e8d-4a1c-b87d-bafb576c6faa,2024-07-19 15:23:09 CEST
12480,"{""P0_Q0"":null,""age"":""42"",""gender"":""male"",""language"":""yes"",""amE"":""yes"",""comments"":""""}",survey,12,221998,0.0-3.0,NA,NA,NA,[],52e88564-5e8d-4a1c-b87d-bafb576c6faa,2024-07-19 15:23:09 CEST
59975,"{""Q0"":""Barbara""}",survey-text,0,60023,0.0-0.0-0.0,TRUE,NA,NA,NA,7bb9d173-f757-4aec-b9cb-54a0246fd042,2024-07-19 15:24:26 CEST
2312,0,html-button-response,1,62341,0.0-0.0-3.0-0.0,NA,<p style='text-align:left'><b> Correct response! You are a human :) </b><br><br></p>,NA,NA,7bb9d173-f757-4aec-b9cb-54a0246fd042,2024-07-19 15:24:26 CEST
46417,0,html-button-response,2,108761,0.0-1.0,NA,"<h3>Instructions</h3>  <p style='text-align:left'>In this experiment, you will read nine questions asked by a speaker, as in this example, where Candy asks a question.</p>  <p style='text-align:left'> <b>Candy</b>: <i>Did Cassandra suggest that the house is big? </i> </p>  <p style='text-align:left'> We then ask you to judge what the speaker is asking about, for example: </p>  <p style='text-align:left'> Is Candy asking whether the house is big? </p>  <p style='text-align:left'>You give your response on a slider marked 'no' at one end and 'yes' at the other.</p>  <p style='text-align:left'>This experiment will take around 2 minutes, and you will be paid 40 cents.</p>  <p style='text-align:left' font size=""1"">By clicking on the button below, you agree to participate in this experiment, which is conducted by researchers at the University of Stuttgart. You may withdraw from this experiment at any time. The data collected will be anonymous and confidential. If you have any questions, you may contact the requester through Prolific's platform, or directly at st180735@stud.uni-stuttgart.de.</p>",NA,NA,7bb9d173-f757-4aec-b9cb-54a0246fd042,2024-07-19 15:24:26 CEST
17326,100,html-slider-response,3,126092,0.0-2.0-0.0,NA,<b>Mary:</b><em> Did Arthur take a French course?</em> <br> <br> Is Mary asking whether Arthur took a French course?,50,NA,7bb9d173-f757-4aec-b9cb-54a0246fd042,2024-07-19 15:24:26 CEST
11896,0,html-slider-response,4,137994,0.0-2.0-0.1,NA,<b>Robert:</b><em> Does Betsy have a cat?</em> <br> <br> Is Robert asking whether Betsy loves apples?,50,NA,7bb9d173-f757-4aec-b9cb-54a0246fd042,2024-07-19 15:24:26 CEST
176837,100,html-slider-response,5,314836,0.0-2.0-0.2,NA,<b>Nora:</b><em>  Is Linda right that Danny ate the last cupcake?</em> <br> <br> Is Nora asking whether Danny ate the last cupcake?,50,NA,7bb9d173-f757-4aec-b9cb-54a0246fd042,2024-07-19 15:24:26 CEST
44829,0,html-slider-response,6,359669,0.0-2.0-0.3,NA,<b>Clare:</b><em>  Did Mia discover that Greg bought a new car?</em> <br> <br> Is Clare asking whether Greg bought a new car?,50,NA,7bb9d173-f757-4aec-b9cb-54a0246fd042,2024-07-19 15:24:26 CEST
125875,0,html-slider-response,7,485548,0.0-2.0-0.4,NA,"<b>Isabel:</b><em> Did Ann criticize Raul, who cheated on his wife?</em> <br> <br> Is Isabel asking whether Raul cheated on his wife?",50,NA,7bb9d173-f757-4aec-b9cb-54a0246fd042,2024-07-19 15:24:26 CEST
77035,100,html-slider-response,8,562586,0.0-2.0-0.5,NA,<b>Chloe:</b><em>  Does Patricia know that Dustin lost his key?</em> <br> <br> Is Chloe asking whether Dustin lost his key?,50,NA,7bb9d173-f757-4aec-b9cb-54a0246fd042,2024-07-19 15:24:26 CEST
14197,100,html-slider-response,9,576786,0.0-2.0-0.6,NA,<b>Vincent:</b><em>  Did David confirm that Ann stole the money?</em> <br> <br> Is Vincent asking whether Ann stole the money?,50,NA,7bb9d173-f757-4aec-b9cb-54a0246fd042,2024-07-19 15:24:26 CEST
18760,0,html-slider-response,10,595549,0.0-2.0-0.7,NA,<b>Oliver:</b><em>  Did Tony confess that Lucy broke the plate?</em> <br> <br> Is Oliver asking whether Lucy broke the plate?,50,NA,7bb9d173-f757-4aec-b9cb-54a0246fd042,2024-07-19 15:24:26 CEST
16323,3,html-slider-response,11,611876,0.0-2.0-0.8,NA,"<b>Dawn:</b><em> Did Jack, who saw the murder, run away?</em> <br> <br> Is Dawn asking whether Jack saw the murder?",50,NA,7bb9d173-f757-4aec-b9cb-54a0246fd042,2024-07-19 15:24:26 CEST
12977,"{""P0_Q0"":null,""age"":""45"",""gender"":""female"",""language"":""yes"",""amE"":""yes"",""comments"":""""}",survey,12,624980,0.0-3.0,NA,NA,NA,[],7bb9d173-f757-4aec-b9cb-54a0246fd042,2024-07-19 15:24:26 CEST
6115,"{""Q0"":""Barbara""}",survey-text,0,6135,0.0-0.0-0.0,TRUE,NA,NA,NA,1d8cec1b-5243-4f68-9d61-fcc88bce8f4f,2024-07-19 15:25:43 CEST
2344,0,html-button-response,1,8481,0.0-0.0-3.0-0.0,NA,<p style='text-align:left'><b> Correct response! You are a human :) </b><br><br></p>,NA,NA,1d8cec1b-5243-4f68-9d61-fcc88bce8f4f,2024-07-19 15:25:43 CEST
1314,0,html-button-response,2,9797,0.0-1.0,NA,"<h3>Instructions</h3>  <p style='text-align:left'>In this experiment, you will read nine questions asked by a speaker, as in this example, where Candy asks a question.</p>  <p style='text-align:left'> <b>Candy</b>: <i>Did Cassandra suggest that the house is big? </i> </p>  <p style='text-align:left'> We then ask you to judge what the speaker is asking about, for example: </p>  <p style='text-align:left'> Is Candy asking whether the house is big? </p>  <p style='text-align:left'>You give your response on a slider marked 'no' at one end and 'yes' at the other.</p>  <p style='text-align:left'>This experiment will take around 2 minutes, and you will be paid 40 cents.</p>  <p style='text-align:left' font size=""1"">By clicking on the button below, you agree to participate in this experiment, which is conducted by researchers at the University of Stuttgart. You may withdraw from this experiment at any time. The data collected will be anonymous and confidential. If you have any questions, you may contact the requester through Prolific's platform, or directly at st180735@stud.uni-stuttgart.de.</p>",NA,NA,1d8cec1b-5243-4f68-9d61-fcc88bce8f4f,2024-07-19 15:25:43 CEST
9595,100,html-slider-response,3,19395,0.0-2.0-0.0,NA,<b>Steven:</b><em>  Is Emma right that Raul cheated on his wife?</em> <br> <br> Is Steven asking whether Raul cheated on his wife?,50,NA,1d8cec1b-5243-4f68-9d61-fcc88bce8f4f,2024-07-19 15:25:43 CEST
6770,0,html-slider-response,4,26166,0.0-2.0-0.1,NA,"<b>Alice:</b><em> Did the police find Jack, who saw the murder?</em> <br> <br> Is Alice asking whether Jack saw the murder?",50,NA,1d8cec1b-5243-4f68-9d61-fcc88bce8f4f,2024-07-19 15:25:43 CEST
3074,0,html-slider-response,5,29242,0.0-2.0-0.2,NA,<b>Robert:</b><em> Does Betsy have a cat?</em> <br> <br> Is Robert asking whether Betsy loves apples?,50,NA,1d8cec1b-5243-4f68-9d61-fcc88bce8f4f,2024-07-19 15:25:43 CEST
6195,0,html-slider-response,6,35440,0.0-2.0-0.3,NA,<b>Frank:</b><em>  Does Linda know that Danny ate the last cupcake?</em> <br> <br> Is Frank asking whether Danny ate the last cupcake?,50,NA,1d8cec1b-5243-4f68-9d61-fcc88bce8f4f,2024-07-19 15:25:43 CEST
6869,0,html-slider-response,7,42311,0.0-2.0-0.4,NA,<b>Oliver:</b><em>  Did David discover that Ann stole the money?</em> <br> <br> Is Oliver asking whether Ann stole the money?,50,NA,1d8cec1b-5243-4f68-9d61-fcc88bce8f4f,2024-07-19 15:25:43 CEST
5849,0,html-slider-response,8,48161,0.0-2.0-0.5,NA,"<b>Chloe:</b><em> Does Dustin, who lost his key, feel upset?</em> <br> <br> Is Chloe asking whether Dustin lost his key?",50,NA,1d8cec1b-5243-4f68-9d61-fcc88bce8f4f,2024-07-19 15:25:43 CEST
4737,100,html-slider-response,9,52901,0.0-2.0-0.6,NA,<b>Leo:</b><em>  Did Tony confirm that Lucy broke the plate?</em> <br> <br> Is Leo asking whether Lucy broke the plate?,50,NA,1d8cec1b-5243-4f68-9d61-fcc88bce8f4f,2024-07-19 15:25:43 CEST
5101,100,html-slider-response,10,58004,0.0-2.0-0.7,NA,<b>Mary:</b><em> Did Arthur take a French course?</em> <br> <br> Is Mary asking whether Arthur took a French course?,50,NA,1d8cec1b-5243-4f68-9d61-fcc88bce8f4f,2024-07-19 15:25:43 CEST
6444,100,html-slider-response,11,64449,0.0-2.0-0.8,NA,<b>Clare:</b><em>  Did Mia confess that Greg bought a new car?</em> <br> <br> Is Clare asking whether Greg bought a new car?,50,NA,1d8cec1b-5243-4f68-9d61-fcc88bce8f4f,2024-07-19 15:25:43 CEST
7039,"{""P0_Q0"":null,""age"":""24"",""gender"":""female"",""language"":""yes"",""amE"":""yes"",""comments"":""""}",survey,12,71546,0.0-3.0,NA,NA,NA,[],1d8cec1b-5243-4f68-9d61-fcc88bce8f4f,2024-07-19 15:25:43 CEST
9947,"{""Q0"":""Patricia""}",survey-text,0,9958,0.0-0.0-0.0,TRUE,NA,NA,NA,cb358a08-cccf-430d-87e6-c31729495c8c,2024-07-19 15:25:55 CEST
1205,0,html-button-response,1,11164,0.0-0.0-3.0-0.0,NA,<p style='text-align:left'><b> Correct response! You are a human :) </b><br><br></p>,NA,NA,cb358a08-cccf-430d-87e6-c31729495c8c,2024-07-19 15:25:55 CEST
5601,0,html-button-response,2,16766,0.0-1.0,NA,"<h3>Instructions</h3>  <p style='text-align:left'>In this experiment, you will read nine questions asked by a speaker, as in this example, where Candy asks a question.</p>  <p style='text-align:left'> <b>Candy</b>: <i>Did Cassandra suggest that the house is big? </i> </p>  <p style='text-align:left'> We then ask you to judge what the speaker is asking about, for example: </p>  <p style='text-align:left'> Is Candy asking whether the house is big? </p>  <p style='text-align:left'>You give your response on a slider marked 'no' at one end and 'yes' at the other.</p>  <p style='text-align:left'>This experiment will take around 2 minutes, and you will be paid 40 cents.</p>  <p style='text-align:left' font size=""1"">By clicking on the button below, you agree to participate in this experiment, which is conducted by researchers at the University of Stuttgart. You may withdraw from this experiment at any time. The data collected will be anonymous and confidential. If you have any questions, you may contact the requester through Prolific's platform, or directly at st180735@stud.uni-stuttgart.de.</p>",NA,NA,cb358a08-cccf-430d-87e6-c31729495c8c,2024-07-19 15:25:55 CEST
9301,0,html-slider-response,3,26067,0.0-2.0-0.0,NA,<b>Ken:</b><em>  Does David know that Ann stole the money?</em> <br> <br> Is Ken asking whether Ann stole the money?,50,NA,cb358a08-cccf-430d-87e6-c31729495c8c,2024-07-19 15:25:55 CEST
6182,0,html-slider-response,4,32250,0.0-2.0-0.1,NA,"<b>Dawn:</b><em> Did the boss condemn Dustin, who lost his key?</em> <br> <br> Is Dawn asking whether Dustin lost his key?",50,NA,cb358a08-cccf-430d-87e6-c31729495c8c,2024-07-19 15:25:55 CEST
9210,0,html-slider-response,5,41461,0.0-2.0-0.2,NA,<b>Alice:</b><em>  Did Linda confess that Danny ate the last cupcake?</em> <br> <br> Is Alice asking whether Danny ate the last cupcake?,50,NA,cb358a08-cccf-430d-87e6-c31729495c8c,2024-07-19 15:25:55 CEST
5224,100,html-slider-response,6,46685,0.0-2.0-0.3,NA,<b>Isabel:</b><em>  Is Emma right that Raul cheated on his wife?</em> <br> <br> Is Isabel asking whether Raul cheated on his wife?,50,NA,cb358a08-cccf-430d-87e6-c31729495c8c,2024-07-19 15:25:55 CEST
4192,0,html-slider-response,7,50878,0.0-2.0-0.4,NA,"<b>Nina:</b><em> Did Jack, who saw the murder, run away?</em> <br> <br> Is Nina asking whether Jack saw the murder?",50,NA,cb358a08-cccf-430d-87e6-c31729495c8c,2024-07-19 15:25:55 CEST
5656,78,html-slider-response,8,56534,0.0-2.0-0.5,NA,<b>Steven:</b><em>  Did Tony confirm that Lucy broke the plate?</em> <br> <br> Is Steven asking whether Lucy broke the plate?,50,NA,cb358a08-cccf-430d-87e6-c31729495c8c,2024-07-19 15:25:55 CEST
3070,0,html-slider-response,9,59606,0.0-2.0-0.6,NA,<b>Robert:</b><em> Does Betsy have a cat?</em> <br> <br> Is Robert asking whether Betsy loves apples?,50,NA,cb358a08-cccf-430d-87e6-c31729495c8c,2024-07-19 15:25:55 CEST
5487,0,html-slider-response,10,65093,0.0-2.0-0.7,NA,<b>Frank:</b><em>  Did Mia discover that Greg bought a new car?</em> <br> <br> Is Frank asking whether Greg bought a new car?,50,NA,cb358a08-cccf-430d-87e6-c31729495c8c,2024-07-19 15:25:55 CEST
4134,100,html-slider-response,11,69228,0.0-2.0-0.8,NA,<b>Mary:</b><em> Did Arthur take a French course?</em> <br> <br> Is Mary asking whether Arthur took a French course?,50,NA,cb358a08-cccf-430d-87e6-c31729495c8c,2024-07-19 15:25:55 CEST
9650,"{""P0_Q0"":null,""age"":""39"",""gender"":""male"",""language"":""yes"",""amE"":""yes"",""comments"":""""}",survey,12,78907,0.0-3.0,NA,NA,NA,[],cb358a08-cccf-430d-87e6-c31729495c8c,2024-07-19 15:25:55 CEST
18128,"{""Q0"":""Mary""}",survey-text,0,18152,0.0-0.0-0.0,TRUE,NA,NA,NA,8a1e7cf9-1e31-4e52-896e-08692e250ca1,2024-07-19 15:26:26 CEST
3011,0,html-button-response,1,21165,0.0-0.0-3.0-0.0,NA,<p style='text-align:left'><b> Correct response! You are a human :) </b><br><br></p>,NA,NA,8a1e7cf9-1e31-4e52-896e-08692e250ca1,2024-07-19 15:26:26 CEST
29748,0,html-button-response,2,50914,0.0-1.0,NA,"<h3>Instructions</h3>  <p style='text-align:left'>In this experiment, you will read nine questions asked by a speaker, as in this example, where Candy asks a question.</p>  <p style='text-align:left'> <b>Candy</b>: <i>Did Cassandra suggest that the house is big? </i> </p>  <p style='text-align:left'> We then ask you to judge what the speaker is asking about, for example: </p>  <p style='text-align:left'> Is Candy asking whether the house is big? </p>  <p style='text-align:left'>You give your response on a slider marked 'no' at one end and 'yes' at the other.</p>  <p style='text-align:left'>This experiment will take around 2 minutes, and you will be paid 40 cents.</p>  <p style='text-align:left' font size=""1"">By clicking on the button below, you agree to participate in this experiment, which is conducted by researchers at the University of Stuttgart. You may withdraw from this experiment at any time. The data collected will be anonymous and confidential. If you have any questions, you may contact the requester through Prolific's platform, or directly at st180735@stud.uni-stuttgart.de.</p>",NA,NA,8a1e7cf9-1e31-4e52-896e-08692e250ca1,2024-07-19 15:26:26 CEST
21007,100,html-slider-response,3,71924,0.0-2.0-0.0,NA,<b>Ken:</b><em>  Did Mia confirm that Greg bought a new car?</em> <br> <br> Is Ken asking whether Greg bought a new car?,50,NA,8a1e7cf9-1e31-4e52-896e-08692e250ca1,2024-07-19 15:26:26 CEST
13999,0,html-slider-response,4,85926,0.0-2.0-0.1,NA,<b>Dawn:</b><em>  Does Tony know that Lucy broke the plate?</em> <br> <br> Is Dawn asking whether Lucy broke the plate?,50,NA,8a1e7cf9-1e31-4e52-896e-08692e250ca1,2024-07-19 15:26:26 CEST
8676,100,html-slider-response,5,94603,0.0-2.0-0.2,NA,<b>Mary:</b><em> Did Arthur take a French course?</em> <br> <br> Is Mary asking whether Arthur took a French course?,50,NA,8a1e7cf9-1e31-4e52-896e-08692e250ca1,2024-07-19 15:26:26 CEST
18418,100,html-slider-response,6,113023,0.0-2.0-0.3,NA,<b>Noah:</b><em>  Is Linda right that Danny ate the last cupcake?</em> <br> <br> Is Noah asking whether Danny ate the last cupcake?,50,NA,8a1e7cf9-1e31-4e52-896e-08692e250ca1,2024-07-19 15:26:26 CEST
21359,0,html-slider-response,7,134383,0.0-2.0-0.4,NA,<b>Leo:</b><em>  Did Patricia confess that Dustin lost his key?</em> <br> <br> Is Leo asking whether Dustin lost his key?,50,NA,8a1e7cf9-1e31-4e52-896e-08692e250ca1,2024-07-19 15:26:26 CEST
18870,100,html-slider-response,8,153254,0.0-2.0-0.5,NA,"<b>Frank:</b><em> Did Ann criticize Raul, who cheated on his wife?</em> <br> <br> Is Frank asking whether Raul cheated on his wife?",50,NA,8a1e7cf9-1e31-4e52-896e-08692e250ca1,2024-07-19 15:26:26 CEST
7816,100,html-slider-response,9,161071,0.0-2.0-0.6,NA,<b>Nora:</b><em>  Did Sophia discover that Jack saw the murder?</em> <br> <br> Is Nora asking whether Jack saw the murder?,50,NA,8a1e7cf9-1e31-4e52-896e-08692e250ca1,2024-07-19 15:26:26 CEST
9935,0,html-slider-response,10,171007,0.0-2.0-0.7,NA,"<b>Clare:</b><em> Was Ann, who stole the money, caught by the police?</em> <br> <br> Is Clare asking whether Ann stole the money?",50,NA,8a1e7cf9-1e31-4e52-896e-08692e250ca1,2024-07-19 15:26:26 CEST
6186,0,html-slider-response,11,177195,0.0-2.0-0.8,NA,<b>Robert:</b><em> Does Betsy have a cat?</em> <br> <br> Is Robert asking whether Betsy loves apples?,50,NA,8a1e7cf9-1e31-4e52-896e-08692e250ca1,2024-07-19 15:26:26 CEST
24963,"{""P0_Q0"":null,""age"":""29"",""gender"":""male"",""language"":""yes"",""amE"":""yes"",""comments"":""the study was interesting""}",survey,12,202231,0.0-3.0,NA,NA,NA,[],8a1e7cf9-1e31-4e52-896e-08692e250ca1,2024-07-19 15:26:26 CEST
9307,"{""Q0"":""Barbara""}",survey-text,0,9347,0.0-0.0-0.0,TRUE,NA,NA,NA,7e36ff30-a39d-493e-ae5c-b12e9d3a755c,2024-07-19 15:27:04 CEST
1894,0,html-button-response,1,11243,0.0-0.0-3.0-0.0,NA,<p style='text-align:left'><b> Correct response! You are a human :) </b><br><br></p>,NA,NA,7e36ff30-a39d-493e-ae5c-b12e9d3a755c,2024-07-19 15:27:04 CEST
11165,0,html-button-response,2,22408,0.0-1.0,NA,"<h3>Instructions</h3>  <p style='text-align:left'>In this experiment, you will read nine questions asked by a speaker, as in this example, where Candy asks a question.</p>  <p style='text-align:left'> <b>Candy</b>: <i>Did Cassandra suggest that the house is big? </i> </p>  <p style='text-align:left'> We then ask you to judge what the speaker is asking about, for example: </p>  <p style='text-align:left'> Is Candy asking whether the house is big? </p>  <p style='text-align:left'>You give your response on a slider marked 'no' at one end and 'yes' at the other.</p>  <p style='text-align:left'>This experiment will take around 2 minutes, and you will be paid 40 cents.</p>  <p style='text-align:left' font size=""1"">By clicking on the button below, you agree to participate in this experiment, which is conducted by researchers at the University of Stuttgart. You may withdraw from this experiment at any time. The data collected will be anonymous and confidential. If you have any questions, you may contact the requester through Prolific's platform, or directly at st180735@stud.uni-stuttgart.de.</p>",NA,NA,7e36ff30-a39d-493e-ae5c-b12e9d3a755c,2024-07-19 15:27:04 CEST
5852,0,html-slider-response,3,28261,0.0-2.0-0.0,NA,<b>Charlotte:</b><em>  Does David know that Ann stole the money?</em> <br> <br> Is Charlotte asking whether Ann stole the money?,50,NA,7e36ff30-a39d-493e-ae5c-b12e9d3a755c,2024-07-19 15:27:04 CEST
6897,100,html-slider-response,4,35159,0.0-2.0-0.1,NA,<b>Oliver:</b><em>  Is Emma right that Raul cheated on his wife?</em> <br> <br> Is Oliver asking whether Raul cheated on his wife?,50,NA,7e36ff30-a39d-493e-ae5c-b12e9d3a755c,2024-07-19 15:27:04 CEST
4701,100,html-slider-response,5,39861,0.0-2.0-0.2,NA,<b>Mary:</b><em> Did Arthur take a French course?</em> <br> <br> Is Mary asking whether Arthur took a French course?,50,NA,7e36ff30-a39d-493e-ae5c-b12e9d3a755c,2024-07-19 15:27:04 CEST
16995,64,html-slider-response,6,56856,0.0-2.0-0.3,NA,<b>Vincent:</b><em>  Did Patricia confess that Dustin lost his key?</em> <br> <br> Is Vincent asking whether Dustin lost his key?,50,NA,7e36ff30-a39d-493e-ae5c-b12e9d3a755c,2024-07-19 15:27:04 CEST
11183,0,html-slider-response,7,68041,0.0-2.0-0.4,NA,"<b>Nora:</b><em> Did the police find Jack, who saw the murder?</em> <br> <br> Is Nora asking whether Jack saw the murder?",50,NA,7e36ff30-a39d-493e-ae5c-b12e9d3a755c,2024-07-19 15:27:04 CEST
5684,0,html-slider-response,8,73727,0.0-2.0-0.5,NA,<b>Robert:</b><em> Does Betsy have a cat?</em> <br> <br> Is Robert asking whether Betsy loves apples?,50,NA,7e36ff30-a39d-493e-ae5c-b12e9d3a755c,2024-07-19 15:27:04 CEST
5615,0,html-slider-response,9,79344,0.0-2.0-0.6,NA,"<b>Steven:</b><em> Does Greg, who bought a new car, have a driver's license?</em> <br> <br> Is Steven asking whether Greg bought a new car?",50,NA,7e36ff30-a39d-493e-ae5c-b12e9d3a755c,2024-07-19 15:27:04 CEST
8479,72,html-slider-response,10,87825,0.0-2.0-0.7,NA,<b>Alice:</b><em>  Did Tony confirm that Lucy broke the plate?</em> <br> <br> Is Alice asking whether Lucy broke the plate?,50,NA,7e36ff30-a39d-493e-ae5c-b12e9d3a755c,2024-07-19 15:27:04 CEST
8029,0,html-slider-response,11,95858,0.0-2.0-0.8,NA,<b>Clare:</b><em>  Did Linda discover that Danny ate the last cupcake?</em> <br> <br> Is Clare asking whether Danny ate the last cupcake?,50,NA,7e36ff30-a39d-493e-ae5c-b12e9d3a755c,2024-07-19 15:27:04 CEST
9584,"{""P0_Q0"":null,""age"":""34"",""gender"":""female"",""language"":""yes"",""amE"":""yes"",""comments"":""""}",survey,12,105482,0.0-3.0,NA,NA,NA,[],7e36ff30-a39d-493e-ae5c-b12e9d3a755c,2024-07-19 15:27:04 CEST
21994,"{""Q0"":""Elizabeth""}",survey-text,0,22144,0.0-0.0-0.0,TRUE,NA,NA,NA,03c9057b-9c9b-46fe-b15c-280c869ceed8,2024-07-19 15:27:15 CEST
2525,0,html-button-response,1,24673,0.0-0.0-3.0-0.0,NA,<p style='text-align:left'><b> Correct response! You are a human :) </b><br><br></p>,NA,NA,03c9057b-9c9b-46fe-b15c-280c869ceed8,2024-07-19 15:27:15 CEST
16317,0,html-button-response,2,40993,0.0-1.0,NA,"<h3>Instructions</h3>  <p style='text-align:left'>In this experiment, you will read nine questions asked by a speaker, as in this example, where Candy asks a question.</p>  <p style='text-align:left'> <b>Candy</b>: <i>Did Cassandra suggest that the house is big? </i> </p>  <p style='text-align:left'> We then ask you to judge what the speaker is asking about, for example: </p>  <p style='text-align:left'> Is Candy asking whether the house is big? </p>  <p style='text-align:left'>You give your response on a slider marked 'no' at one end and 'yes' at the other.</p>  <p style='text-align:left'>This experiment will take around 2 minutes, and you will be paid 40 cents.</p>  <p style='text-align:left' font size=""1"">By clicking on the button below, you agree to participate in this experiment, which is conducted by researchers at the University of Stuttgart. You may withdraw from this experiment at any time. The data collected will be anonymous and confidential. If you have any questions, you may contact the requester through Prolific's platform, or directly at st180735@stud.uni-stuttgart.de.</p>",NA,NA,03c9057b-9c9b-46fe-b15c-280c869ceed8,2024-07-19 15:27:15 CEST
8664,0,html-slider-response,3,49660,0.0-2.0-0.0,NA,<b>Robert:</b><em> Does Betsy have a cat?</em> <br> <br> Is Robert asking whether Betsy loves apples?,50,NA,03c9057b-9c9b-46fe-b15c-280c869ceed8,2024-07-19 15:27:15 CEST
12915,0,html-slider-response,4,62577,0.0-2.0-0.1,NA,"<b>Nina:</b><em> Does Dustin, who lost his key, feel upset?</em> <br> <br> Is Nina asking whether Dustin lost his key?",50,NA,03c9057b-9c9b-46fe-b15c-280c869ceed8,2024-07-19 15:27:15 CEST
7470,100,html-slider-response,5,70051,0.0-2.0-0.2,NA,<b>Mary:</b><em> Did Arthur take a French course?</em> <br> <br> Is Mary asking whether Arthur took a French course?,50,NA,03c9057b-9c9b-46fe-b15c-280c869ceed8,2024-07-19 15:27:15 CEST
9412,0,html-slider-response,6,79468,0.0-2.0-0.3,NA,"<b>Bob:</b><em> Did the police find Jack, who saw the murder?</em> <br> <br> Is Bob asking whether Jack saw the murder?",50,NA,03c9057b-9c9b-46fe-b15c-280c869ceed8,2024-07-19 15:27:15 CEST
13757,16,html-slider-response,7,93228,0.0-2.0-0.4,NA,<b>Isabel:</b><em>  Did Linda discover that Danny ate the last cupcake?</em> <br> <br> Is Isabel asking whether Danny ate the last cupcake?,50,NA,03c9057b-9c9b-46fe-b15c-280c869ceed8,2024-07-19 15:27:15 CEST
12523,72,html-slider-response,8,105755,0.0-2.0-0.5,NA,<b>Leo:</b><em>  Did Emma confirm that Raul cheated on his wife?</em> <br> <br> Is Leo asking whether Raul cheated on his wife?,50,NA,03c9057b-9c9b-46fe-b15c-280c869ceed8,2024-07-19 15:27:15 CEST
9410,0,html-slider-response,9,115168,0.0-2.0-0.6,NA,<b>Ken:</b><em>  Does Tony know that Lucy broke the plate?</em> <br> <br> Is Ken asking whether Lucy broke the plate?,50,NA,03c9057b-9c9b-46fe-b15c-280c869ceed8,2024-07-19 15:27:15 CEST
7534,0,html-slider-response,10,122705,0.0-2.0-0.7,NA,<b>Chloe:</b><em>  Did Mia confess that Greg bought a new car?</em> <br> <br> Is Chloe asking whether Greg bought a new car?,50,NA,03c9057b-9c9b-46fe-b15c-280c869ceed8,2024-07-19 15:27:15 CEST
6391,90,html-slider-response,11,129099,0.0-2.0-0.8,NA,<b>William:</b><em>  Is David right that Ann stole the money?</em> <br> <br> Is William asking whether Ann stole the money?,50,NA,03c9057b-9c9b-46fe-b15c-280c869ceed8,2024-07-19 15:27:15 CEST
20145,"{""P0_Q0"":null,""age"":""40"",""gender"":""male"",""language"":""yes"",""amE"":""yes"",""comments"":""""}",survey,12,149561,0.0-3.0,NA,NA,NA,[],03c9057b-9c9b-46fe-b15c-280c869ceed8,2024-07-19 15:27:15 CEST
93429,"{""Q0"":""Barbara""}",survey-text,0,93481,0.0-0.0-0.0,TRUE,NA,NA,NA,e9286969-d9c9-402b-b863-e76f86d4683c,2024-07-19 15:27:24 CEST
6248,0,html-button-response,1,99734,0.0-0.0-3.0-0.0,NA,<p style='text-align:left'><b> Correct response! You are a human :) </b><br><br></p>,NA,NA,e9286969-d9c9-402b-b863-e76f86d4683c,2024-07-19 15:27:24 CEST
54485,0,html-button-response,2,154220,0.0-1.0,NA,"<h3>Instructions</h3>  <p style='text-align:left'>In this experiment, you will read nine questions asked by a speaker, as in this example, where Candy asks a question.</p>  <p style='text-align:left'> <b>Candy</b>: <i>Did Cassandra suggest that the house is big? </i> </p>  <p style='text-align:left'> We then ask you to judge what the speaker is asking about, for example: </p>  <p style='text-align:left'> Is Candy asking whether the house is big? </p>  <p style='text-align:left'>You give your response on a slider marked 'no' at one end and 'yes' at the other.</p>  <p style='text-align:left'>This experiment will take around 2 minutes, and you will be paid 40 cents.</p>  <p style='text-align:left' font size=""1"">By clicking on the button below, you agree to participate in this experiment, which is conducted by researchers at the University of Stuttgart. You may withdraw from this experiment at any time. The data collected will be anonymous and confidential. If you have any questions, you may contact the requester through Prolific's platform, or directly at st180735@stud.uni-stuttgart.de.</p>",NA,NA,e9286969-d9c9-402b-b863-e76f86d4683c,2024-07-19 15:27:24 CEST
35282,0,html-slider-response,3,189506,0.0-2.0-0.0,NA,<b>Mary:</b><em> Did Arthur take a French course?</em> <br> <br> Is Mary asking whether Arthur took a French course?,50,NA,e9286969-d9c9-402b-b863-e76f86d4683c,2024-07-19 15:27:24 CEST
16283,100,html-slider-response,4,205793,0.0-2.0-0.1,NA,"<b>Dawn:</b><em> Does Raul, who cheated on his wife, feel guilty?</em> <br> <br> Is Dawn asking whether Raul cheated on his wife?",50,NA,e9286969-d9c9-402b-b863-e76f86d4683c,2024-07-19 15:27:24 CEST
20468,100,html-slider-response,5,226263,0.0-2.0-0.2,NA,<b>Clare:</b><em>  Did Tony confirm that Lucy broke the plate?</em> <br> <br> Is Clare asking whether Lucy broke the plate?,50,NA,e9286969-d9c9-402b-b863-e76f86d4683c,2024-07-19 15:27:24 CEST
20872,74,html-slider-response,6,247137,0.0-2.0-0.3,NA,<b>Nora:</b><em>  Is Sophia right that Jack saw the murder?</em> <br> <br> Is Nora asking whether Jack saw the murder?,50,NA,e9286969-d9c9-402b-b863-e76f86d4683c,2024-07-19 15:27:24 CEST
22965,100,html-slider-response,7,270104,0.0-2.0-0.4,NA,<b>Frank:</b><em>  Did Mia confess that Greg bought a new car?</em> <br> <br> Is Frank asking whether Greg bought a new car?,50,NA,e9286969-d9c9-402b-b863-e76f86d4683c,2024-07-19 15:27:24 CEST
16314,0,html-slider-response,8,286420,0.0-2.0-0.5,NA,<b>Nina:</b><em>  Does Patricia know that Dustin lost his key?</em> <br> <br> Is Nina asking whether Dustin lost his key?,50,NA,e9286969-d9c9-402b-b863-e76f86d4683c,2024-07-19 15:27:24 CEST
17258,100,html-slider-response,9,303680,0.0-2.0-0.6,NA,<b>Oliver:</b><em>  Did Linda discover that Danny ate the last cupcake?</em> <br> <br> Is Oliver asking whether Danny ate the last cupcake?,50,NA,e9286969-d9c9-402b-b863-e76f86d4683c,2024-07-19 15:27:24 CEST
28637,98,html-slider-response,10,332318,0.0-2.0-0.7,NA,"<b>Chloe:</b><em> Did the manager report Ann, who stole the money?</em> <br> <br> Is Chloe asking whether Ann stole the money?",50,NA,e9286969-d9c9-402b-b863-e76f86d4683c,2024-07-19 15:27:24 CEST
16415,0,html-slider-response,11,348735,0.0-2.0-0.8,NA,<b>Robert:</b><em> Does Betsy have a cat?</em> <br> <br> Is Robert asking whether Betsy loves apples?,50,NA,e9286969-d9c9-402b-b863-e76f86d4683c,2024-07-19 15:27:24 CEST
40735,"{""P0_Q0"":null,""age"":""43"",""gender"":""female"",""language"":""yes"",""amE"":""yes"",""comments"":""""}",survey,12,389585,0.0-3.0,NA,NA,NA,[],e9286969-d9c9-402b-b863-e76f86d4683c,2024-07-19 15:27:24 CEST
38890,"{""Q0"":""Susan""}",survey-text,0,38917,0.0-0.0-0.0,TRUE,NA,NA,NA,d143e9df-c90e-4f5d-821a-0101b5b24939,2024-07-19 15:27:46 CEST
7495,0,html-button-response,1,46423,0.0-0.0-3.0-0.0,NA,<p style='text-align:left'><b> Correct response! You are a human :) </b><br><br></p>,NA,NA,d143e9df-c90e-4f5d-821a-0101b5b24939,2024-07-19 15:27:46 CEST
22775,0,html-button-response,2,69205,0.0-1.0,NA,"<h3>Instructions</h3>  <p style='text-align:left'>In this experiment, you will read nine questions asked by a speaker, as in this example, where Candy asks a question.</p>  <p style='text-align:left'> <b>Candy</b>: <i>Did Cassandra suggest that the house is big? </i> </p>  <p style='text-align:left'> We then ask you to judge what the speaker is asking about, for example: </p>  <p style='text-align:left'> Is Candy asking whether the house is big? </p>  <p style='text-align:left'>You give your response on a slider marked 'no' at one end and 'yes' at the other.</p>  <p style='text-align:left'>This experiment will take around 2 minutes, and you will be paid 40 cents.</p>  <p style='text-align:left' font size=""1"">By clicking on the button below, you agree to participate in this experiment, which is conducted by researchers at the University of Stuttgart. You may withdraw from this experiment at any time. The data collected will be anonymous and confidential. If you have any questions, you may contact the requester through Prolific's platform, or directly at st180735@stud.uni-stuttgart.de.</p>",NA,NA,d143e9df-c90e-4f5d-821a-0101b5b24939,2024-07-19 15:27:46 CEST
7184,91,html-slider-response,3,76417,0.0-2.0-0.0,NA,<b>Steven:</b><em>  Did Tony confirm that Lucy broke the plate?</em> <br> <br> Is Steven asking whether Lucy broke the plate?,50,NA,d143e9df-c90e-4f5d-821a-0101b5b24939,2024-07-19 15:27:46 CEST
6101,0,html-slider-response,4,82527,0.0-2.0-0.1,NA,"<b>Nina:</b><em> Does Greg, who bought a new car, have a driver's license?</em> <br> <br> Is Nina asking whether Greg bought a new car?",50,NA,d143e9df-c90e-4f5d-821a-0101b5b24939,2024-07-19 15:27:46 CEST
4735,0,html-slider-response,5,87267,0.0-2.0-0.2,NA,<b>Robert:</b><em> Does Betsy have a cat?</em> <br> <br> Is Robert asking whether Betsy loves apples?,50,NA,d143e9df-c90e-4f5d-821a-0101b5b24939,2024-07-19 15:27:46 CEST
4857,0,html-slider-response,6,92128,0.0-2.0-0.3,NA,"<b>Isabel:</b><em> Did Lucy forgive Danny, who ate the last cupcake?</em> <br> <br> Is Isabel asking whether Danny ate the last cupcake?",50,NA,d143e9df-c90e-4f5d-821a-0101b5b24939,2024-07-19 15:27:46 CEST
5553,84,html-slider-response,7,97687,0.0-2.0-0.4,NA,<b>Alice:</b><em>  Did Emma confess that Raul cheated on his wife?</em> <br> <br> Is Alice asking whether Raul cheated on his wife?,50,NA,d143e9df-c90e-4f5d-821a-0101b5b24939,2024-07-19 15:27:46 CEST
4082,100,html-slider-response,8,101776,0.0-2.0-0.5,NA,<b>Charlotte:</b><em>  Did Sophia discover that Jack saw the murder?</em> <br> <br> Is Charlotte asking whether Jack saw the murder?,50,NA,d143e9df-c90e-4f5d-821a-0101b5b24939,2024-07-19 15:27:46 CEST
9395,90,html-slider-response,9,111175,0.0-2.0-0.6,NA,<b>Vincent:</b><em>  Is David right that Ann stole the money?</em> <br> <br> Is Vincent asking whether Ann stole the money?,50,NA,d143e9df-c90e-4f5d-821a-0101b5b24939,2024-07-19 15:27:46 CEST
9931,0,html-slider-response,10,121112,0.0-2.0-0.7,NA,<b>Leo:</b><em>  Does Patricia know that Dustin lost his key?</em> <br> <br> Is Leo asking whether Dustin lost his key?,50,NA,d143e9df-c90e-4f5d-821a-0101b5b24939,2024-07-19 15:27:46 CEST
3098,96,html-slider-response,11,124215,0.0-2.0-0.8,NA,<b>Mary:</b><em> Did Arthur take a French course?</em> <br> <br> Is Mary asking whether Arthur took a French course?,50,NA,d143e9df-c90e-4f5d-821a-0101b5b24939,2024-07-19 15:27:46 CEST
12734,"{""P0_Q0"":null,""age"":""28"",""gender"":""female"",""language"":""yes"",""amE"":""yes"",""comments"":""""}",survey,12,137202,0.0-3.0,NA,NA,NA,[],d143e9df-c90e-4f5d-821a-0101b5b24939,2024-07-19 15:27:46 CEST
5693,"{""Q0"":""Jessica""}",survey-text,0,5712,0.0-0.0-0.0,TRUE,NA,NA,NA,c9d6922b-f579-4c26-81dc-9e4398c71ae7,2024-07-19 15:28:34 CEST
1374,0,html-button-response,1,7088,0.0-0.0-3.0-0.0,NA,<p style='text-align:left'><b> Correct response! You are a human :) </b><br><br></p>,NA,NA,c9d6922b-f579-4c26-81dc-9e4398c71ae7,2024-07-19 15:28:34 CEST
7390,0,html-button-response,2,14479,0.0-1.0,NA,"<h3>Instructions</h3>  <p style='text-align:left'>In this experiment, you will read nine questions asked by a speaker, as in this example, where Candy asks a question.</p>  <p style='text-align:left'> <b>Candy</b>: <i>Did Cassandra suggest that the house is big? </i> </p>  <p style='text-align:left'> We then ask you to judge what the speaker is asking about, for example: </p>  <p style='text-align:left'> Is Candy asking whether the house is big? </p>  <p style='text-align:left'>You give your response on a slider marked 'no' at one end and 'yes' at the other.</p>  <p style='text-align:left'>This experiment will take around 2 minutes, and you will be paid 40 cents.</p>  <p style='text-align:left' font size=""1"">By clicking on the button below, you agree to participate in this experiment, which is conducted by researchers at the University of Stuttgart. You may withdraw from this experiment at any time. The data collected will be anonymous and confidential. If you have any questions, you may contact the requester through Prolific's platform, or directly at st180735@stud.uni-stuttgart.de.</p>",NA,NA,c9d6922b-f579-4c26-81dc-9e4398c71ae7,2024-07-19 15:28:34 CEST
18839,26,html-slider-response,3,33320,0.0-2.0-0.0,NA,<b>Oliver:</b><em>  Did Emma confess that Raul cheated on his wife?</em> <br> <br> Is Oliver asking whether Raul cheated on his wife?,50,NA,c9d6922b-f579-4c26-81dc-9e4398c71ae7,2024-07-19 15:28:34 CEST
4631,100,html-slider-response,4,37952,0.0-2.0-0.1,NA,<b>Mary:</b><em> Did Arthur take a French course?</em> <br> <br> Is Mary asking whether Arthur took a French course?,50,NA,c9d6922b-f579-4c26-81dc-9e4398c71ae7,2024-07-19 15:28:34 CEST
6909,0,html-slider-response,5,44863,0.0-2.0-0.2,NA,<b>Noah:</b><em>  Does Patricia know that Dustin lost his key?</em> <br> <br> Is Noah asking whether Dustin lost his key?,50,NA,c9d6922b-f579-4c26-81dc-9e4398c71ae7,2024-07-19 15:28:34 CEST
3351,0,html-slider-response,6,48215,0.0-2.0-0.3,NA,<b>Robert:</b><em> Does Betsy have a cat?</em> <br> <br> Is Robert asking whether Betsy loves apples?,50,NA,c9d6922b-f579-4c26-81dc-9e4398c71ae7,2024-07-19 15:28:34 CEST
8639,94,html-slider-response,7,56856,0.0-2.0-0.4,NA,<b>Clare:</b><em>  Is Linda right that Danny ate the last cupcake?</em> <br> <br> Is Clare asking whether Danny ate the last cupcake?,50,NA,c9d6922b-f579-4c26-81dc-9e4398c71ae7,2024-07-19 15:28:34 CEST
6518,0,html-slider-response,8,63375,0.0-2.0-0.5,NA,<b>Isabel:</b><em>  Did Mia discover that Greg bought a new car?</em> <br> <br> Is Isabel asking whether Greg bought a new car?,50,NA,c9d6922b-f579-4c26-81dc-9e4398c71ae7,2024-07-19 15:28:34 CEST
24681,0,html-slider-response,9,88058,0.0-2.0-0.6,NA,"<b>Charlotte:</b><em> Did Lucy, who broke the plate, apologize?</em> <br> <br> Is Charlotte asking whether Lucy broke the plate?",50,NA,c9d6922b-f579-4c26-81dc-9e4398c71ae7,2024-07-19 15:28:34 CEST
4974,36,html-slider-response,10,93033,0.0-2.0-0.7,NA,<b>Bob:</b><em>  Did David confirm that Ann stole the money?</em> <br> <br> Is Bob asking whether Ann stole the money?,50,NA,c9d6922b-f579-4c26-81dc-9e4398c71ae7,2024-07-19 15:28:34 CEST
3487,0,html-slider-response,11,96522,0.0-2.0-0.8,NA,"<b>Nina:</b><em> Did the police find Jack, who saw the murder?</em> <br> <br> Is Nina asking whether Jack saw the murder?",50,NA,c9d6922b-f579-4c26-81dc-9e4398c71ae7,2024-07-19 15:28:34 CEST
19953,"{""P0_Q0"":null,""age"":""24"",""gender"":""male"",""language"":""yes"",""amE"":""yes"",""comments"":""none""}",survey,12,116537,0.0-3.0,NA,NA,NA,[],c9d6922b-f579-4c26-81dc-9e4398c71ae7,2024-07-19 15:28:34 CEST
12634,"{""Q0"":""Sarah""}",survey-text,0,12660,0.0-0.0-0.0,TRUE,NA,NA,NA,2ba11c52-fc5e-4477-8ab5-3b40afa48eb7,2024-07-19 15:28:38 CEST
1982,0,html-button-response,1,14644,0.0-0.0-3.0-0.0,NA,<p style='text-align:left'><b> Correct response! You are a human :) </b><br><br></p>,NA,NA,2ba11c52-fc5e-4477-8ab5-3b40afa48eb7,2024-07-19 15:28:38 CEST
55135,0,html-button-response,2,69779,0.0-1.0,NA,"<h3>Instructions</h3>  <p style='text-align:left'>In this experiment, you will read nine questions asked by a speaker, as in this example, where Candy asks a question.</p>  <p style='text-align:left'> <b>Candy</b>: <i>Did Cassandra suggest that the house is big? </i> </p>  <p style='text-align:left'> We then ask you to judge what the speaker is asking about, for example: </p>  <p style='text-align:left'> Is Candy asking whether the house is big? </p>  <p style='text-align:left'>You give your response on a slider marked 'no' at one end and 'yes' at the other.</p>  <p style='text-align:left'>This experiment will take around 2 minutes, and you will be paid 40 cents.</p>  <p style='text-align:left' font size=""1"">By clicking on the button below, you agree to participate in this experiment, which is conducted by researchers at the University of Stuttgart. You may withdraw from this experiment at any time. The data collected will be anonymous and confidential. If you have any questions, you may contact the requester through Prolific's platform, or directly at st180735@stud.uni-stuttgart.de.</p>",NA,NA,2ba11c52-fc5e-4477-8ab5-3b40afa48eb7,2024-07-19 15:28:38 CEST
16549,100,html-slider-response,3,86331,0.0-2.0-0.0,NA,<b>Alice:</b><em>  Did Linda discover that Danny ate the last cupcake?</em> <br> <br> Is Alice asking whether Danny ate the last cupcake?,50,NA,2ba11c52-fc5e-4477-8ab5-3b40afa48eb7,2024-07-19 15:28:38 CEST
9294,37,html-slider-response,4,95627,0.0-2.0-0.1,NA,<b>William:</b><em>  Did David confirm that Ann stole the money?</em> <br> <br> Is William asking whether Ann stole the money?,50,NA,2ba11c52-fc5e-4477-8ab5-3b40afa48eb7,2024-07-19 15:28:38 CEST
11279,13,html-slider-response,5,106907,0.0-2.0-0.2,NA,"<b>Noah:</b><em> Did Jack, who saw the murder, run away?</em> <br> <br> Is Noah asking whether Jack saw the murder?",50,NA,2ba11c52-fc5e-4477-8ab5-3b40afa48eb7,2024-07-19 15:28:38 CEST
11223,0,html-slider-response,6,118131,0.0-2.0-0.3,NA,<b>Robert:</b><em> Does Betsy have a cat?</em> <br> <br> Is Robert asking whether Betsy loves apples?,50,NA,2ba11c52-fc5e-4477-8ab5-3b40afa48eb7,2024-07-19 15:28:38 CEST
18479,75,html-slider-response,7,136611,0.0-2.0-0.4,NA,<b>Grace:</b><em>  Is Patricia right that Dustin lost his key?</em> <br> <br> Is Grace asking whether Dustin lost his key?,50,NA,2ba11c52-fc5e-4477-8ab5-3b40afa48eb7,2024-07-19 15:28:38 CEST
3351,65,html-slider-response,8,139963,0.0-2.0-0.5,NA,"<b>Charlie:</b><em> Did Ann criticize Raul, who cheated on his wife?</em> <br> <br> Is Charlie asking whether Raul cheated on his wife?",50,NA,2ba11c52-fc5e-4477-8ab5-3b40afa48eb7,2024-07-19 15:28:38 CEST
11855,4,html-slider-response,9,151819,0.0-2.0-0.6,NA,<b>Clare:</b><em>  Does Mia know that Greg bought a new car?</em> <br> <br> Is Clare asking whether Greg bought a new car?,50,NA,2ba11c52-fc5e-4477-8ab5-3b40afa48eb7,2024-07-19 15:28:38 CEST
6232,100,html-slider-response,10,158052,0.0-2.0-0.7,NA,<b>Mary:</b><em> Did Arthur take a French course?</em> <br> <br> Is Mary asking whether Arthur took a French course?,50,NA,2ba11c52-fc5e-4477-8ab5-3b40afa48eb7,2024-07-19 15:28:38 CEST
8942,10,html-slider-response,11,166995,0.0-2.0-0.8,NA,<b>Nina:</b><em>  Did Tony confess that Lucy broke the plate?</em> <br> <br> Is Nina asking whether Lucy broke the plate?,50,NA,2ba11c52-fc5e-4477-8ab5-3b40afa48eb7,2024-07-19 15:28:38 CEST
31736,"{""P0_Q0"":null,""age"":""29"",""gender"":""male"",""language"":""yes"",""amE"":""yes"",""comments"":""none""}",survey,12,198804,0.0-3.0,NA,NA,NA,[],2ba11c52-fc5e-4477-8ab5-3b40afa48eb7,2024-07-19 15:28:38 CEST
11136,"{""Q0"":""Barbara""}",survey-text,0,11164,0.0-0.0-0.0,TRUE,NA,NA,NA,db97eece-b229-4df0-8324-522f8b5c26c0,2024-07-19 15:28:46 CEST
1779,0,html-button-response,1,12944,0.0-0.0-3.0-0.0,NA,<p style='text-align:left'><b> Correct response! You are a human :) </b><br><br></p>,NA,NA,db97eece-b229-4df0-8324-522f8b5c26c0,2024-07-19 15:28:46 CEST
21429,0,html-button-response,2,34376,0.0-1.0,NA,"<h3>Instructions</h3>  <p style='text-align:left'>In this experiment, you will read nine questions asked by a speaker, as in this example, where Candy asks a question.</p>  <p style='text-align:left'> <b>Candy</b>: <i>Did Cassandra suggest that the house is big? </i> </p>  <p style='text-align:left'> We then ask you to judge what the speaker is asking about, for example: </p>  <p style='text-align:left'> Is Candy asking whether the house is big? </p>  <p style='text-align:left'>You give your response on a slider marked 'no' at one end and 'yes' at the other.</p>  <p style='text-align:left'>This experiment will take around 2 minutes, and you will be paid 40 cents.</p>  <p style='text-align:left' font size=""1"">By clicking on the button below, you agree to participate in this experiment, which is conducted by researchers at the University of Stuttgart. You may withdraw from this experiment at any time. The data collected will be anonymous and confidential. If you have any questions, you may contact the requester through Prolific's platform, or directly at st180735@stud.uni-stuttgart.de.</p>",NA,NA,db97eece-b229-4df0-8324-522f8b5c26c0,2024-07-19 15:28:46 CEST
8096,0,html-slider-response,3,42475,0.0-2.0-0.0,NA,<b>Robert:</b><em> Does Betsy have a cat?</em> <br> <br> Is Robert asking whether Betsy loves apples?,50,NA,db97eece-b229-4df0-8324-522f8b5c26c0,2024-07-19 15:28:46 CEST
8082,100,html-slider-response,4,50559,0.0-2.0-0.1,NA,<b>Oliver:</b><em>  Is Patricia right that Dustin lost his key?</em> <br> <br> Is Oliver asking whether Dustin lost his key?,50,NA,db97eece-b229-4df0-8324-522f8b5c26c0,2024-07-19 15:28:46 CEST
6165,100,html-slider-response,5,56725,0.0-2.0-0.2,NA,<b>Mary:</b><em> Did Arthur take a French course?</em> <br> <br> Is Mary asking whether Arthur took a French course?,50,NA,db97eece-b229-4df0-8324-522f8b5c26c0,2024-07-19 15:28:46 CEST
10871,13,html-slider-response,6,67597,0.0-2.0-0.3,NA,"<b>Chloe:</b><em> Did Lucy, who broke the plate, apologize?</em> <br> <br> Is Chloe asking whether Lucy broke the plate?",50,NA,db97eece-b229-4df0-8324-522f8b5c26c0,2024-07-19 15:28:46 CEST
8127,6,html-slider-response,7,75725,0.0-2.0-0.4,NA,<b>William:</b><em>  Does Linda know that Danny ate the last cupcake?</em> <br> <br> Is William asking whether Danny ate the last cupcake?,50,NA,db97eece-b229-4df0-8324-522f8b5c26c0,2024-07-19 15:28:46 CEST
8783,2,html-slider-response,8,84508,0.0-2.0-0.5,NA,"<b>Steven:</b><em> Did Ann criticize Raul, who cheated on his wife?</em> <br> <br> Is Steven asking whether Raul cheated on his wife?",50,NA,db97eece-b229-4df0-8324-522f8b5c26c0,2024-07-19 15:28:46 CEST
8100,8,html-slider-response,9,92608,0.0-2.0-0.6,NA,<b>Leo:</b><em>  Did Mia confess that Greg bought a new car?</em> <br> <br> Is Leo asking whether Greg bought a new car?,50,NA,db97eece-b229-4df0-8324-522f8b5c26c0,2024-07-19 15:28:46 CEST
7534,95,html-slider-response,10,100142,0.0-2.0-0.7,NA,<b>Dawn:</b><em>  Did Sophia confirm that Jack saw the murder?</em> <br> <br> Is Dawn asking whether Jack saw the murder?,50,NA,db97eece-b229-4df0-8324-522f8b5c26c0,2024-07-19 15:28:46 CEST
7683,14,html-slider-response,11,107825,0.0-2.0-0.8,NA,<b>Nora:</b><em>  Did David discover that Ann stole the money?</em> <br> <br> Is Nora asking whether Ann stole the money?,50,NA,db97eece-b229-4df0-8324-522f8b5c26c0,2024-07-19 15:28:46 CEST
12430,"{""P0_Q0"":null,""age"":""22"",""gender"":""female"",""language"":""yes"",""amE"":""yes"",""comments"":""""}",survey,12,120305,0.0-3.0,NA,NA,NA,[],db97eece-b229-4df0-8324-522f8b5c26c0,2024-07-19 15:28:46 CEST
16629,"{""Q0"":""Mary""}",survey-text,0,16643,0.0-0.0-0.0,TRUE,NA,NA,NA,5ea9074e-4ff6-4c30-92db-6ddc81a99151,2024-07-19 15:28:55 CEST
1829,0,html-button-response,1,18474,0.0-0.0-3.0-0.0,NA,<p style='text-align:left'><b> Correct response! You are a human :) </b><br><br></p>,NA,NA,5ea9074e-4ff6-4c30-92db-6ddc81a99151,2024-07-19 15:28:55 CEST
16831,0,html-button-response,2,35306,0.0-1.0,NA,"<h3>Instructions</h3>  <p style='text-align:left'>In this experiment, you will read nine questions asked by a speaker, as in this example, where Candy asks a question.</p>  <p style='text-align:left'> <b>Candy</b>: <i>Did Cassandra suggest that the house is big? </i> </p>  <p style='text-align:left'> We then ask you to judge what the speaker is asking about, for example: </p>  <p style='text-align:left'> Is Candy asking whether the house is big? </p>  <p style='text-align:left'>You give your response on a slider marked 'no' at one end and 'yes' at the other.</p>  <p style='text-align:left'>This experiment will take around 2 minutes, and you will be paid 40 cents.</p>  <p style='text-align:left' font size=""1"">By clicking on the button below, you agree to participate in this experiment, which is conducted by researchers at the University of Stuttgart. You may withdraw from this experiment at any time. The data collected will be anonymous and confidential. If you have any questions, you may contact the requester through Prolific's platform, or directly at st180735@stud.uni-stuttgart.de.</p>",NA,NA,5ea9074e-4ff6-4c30-92db-6ddc81a99151,2024-07-19 15:28:55 CEST
15390,0,html-slider-response,3,50698,0.0-2.0-0.0,NA,"<b>Nina:</b><em> Did Jack, who saw the murder, run away?</em> <br> <br> Is Nina asking whether Jack saw the murder?",50,NA,5ea9074e-4ff6-4c30-92db-6ddc81a99151,2024-07-19 15:28:55 CEST
13662,6,html-slider-response,4,64362,0.0-2.0-0.1,NA,<b>Dawn:</b><em>  Does Tony know that Lucy broke the plate?</em> <br> <br> Is Dawn asking whether Lucy broke the plate?,50,NA,5ea9074e-4ff6-4c30-92db-6ddc81a99151,2024-07-19 15:28:55 CEST
12551,86,html-slider-response,5,76914,0.0-2.0-0.2,NA,<b>Noah:</b><em>  Did Emma confirm that Raul cheated on his wife?</em> <br> <br> Is Noah asking whether Raul cheated on his wife?,50,NA,5ea9074e-4ff6-4c30-92db-6ddc81a99151,2024-07-19 15:28:55 CEST
12111,100,html-slider-response,6,89026,0.0-2.0-0.3,NA,<b>Mary:</b><em> Did Arthur take a French course?</em> <br> <br> Is Mary asking whether Arthur took a French course?,50,NA,5ea9074e-4ff6-4c30-92db-6ddc81a99151,2024-07-19 15:28:55 CEST
9006,8,html-slider-response,7,98033,0.0-2.0-0.4,NA,<b>Ken:</b><em>  Did Mia discover that Greg bought a new car?</em> <br> <br> Is Ken asking whether Greg bought a new car?,50,NA,5ea9074e-4ff6-4c30-92db-6ddc81a99151,2024-07-19 15:28:55 CEST
8895,86,html-slider-response,8,106929,0.0-2.0-0.5,NA,<b>Leo:</b><em>  Is David right that Ann stole the money?</em> <br> <br> Is Leo asking whether Ann stole the money?,50,NA,5ea9074e-4ff6-4c30-92db-6ddc81a99151,2024-07-19 15:28:55 CEST
10232,5,html-slider-response,9,117161,0.0-2.0-0.6,NA,"<b>Alice:</b><em> Did Lucy forgive Danny, who ate the last cupcake?</em> <br> <br> Is Alice asking whether Danny ate the last cupcake?",50,NA,5ea9074e-4ff6-4c30-92db-6ddc81a99151,2024-07-19 15:28:55 CEST
8631,0,html-slider-response,10,125793,0.0-2.0-0.7,NA,<b>Robert:</b><em> Does Betsy have a cat?</em> <br> <br> Is Robert asking whether Betsy loves apples?,50,NA,5ea9074e-4ff6-4c30-92db-6ddc81a99151,2024-07-19 15:28:55 CEST
11816,11,html-slider-response,11,137609,0.0-2.0-0.8,NA,<b>Bob:</b><em>  Did Patricia confess that Dustin lost his key?</em> <br> <br> Is Bob asking whether Dustin lost his key?,50,NA,5ea9074e-4ff6-4c30-92db-6ddc81a99151,2024-07-19 15:28:55 CEST
15415,"{""P0_Q0"":null,""age"":""65"",""gender"":""female"",""language"":""yes"",""amE"":""yes"",""comments"":""""}",survey,12,153068,0.0-3.0,NA,NA,NA,[],5ea9074e-4ff6-4c30-92db-6ddc81a99151,2024-07-19 15:28:55 CEST
7715,"{""Q0"":""Jennifer""}",survey-text,0,7738,0.0-0.0-0.0,TRUE,NA,NA,NA,16ac59cd-1ae1-4265-b3af-4cb7956ddb71,2024-07-19 15:30:15 CEST
1165,0,html-button-response,1,8905,0.0-0.0-3.0-0.0,NA,<p style='text-align:left'><b> Correct response! You are a human :) </b><br><br></p>,NA,NA,16ac59cd-1ae1-4265-b3af-4cb7956ddb71,2024-07-19 15:30:15 CEST
11063,0,html-button-response,2,19970,0.0-1.0,NA,"<h3>Instructions</h3>  <p style='text-align:left'>In this experiment, you will read nine questions asked by a speaker, as in this example, where Candy asks a question.</p>  <p style='text-align:left'> <b>Candy</b>: <i>Did Cassandra suggest that the house is big? </i> </p>  <p style='text-align:left'> We then ask you to judge what the speaker is asking about, for example: </p>  <p style='text-align:left'> Is Candy asking whether the house is big? </p>  <p style='text-align:left'>You give your response on a slider marked 'no' at one end and 'yes' at the other.</p>  <p style='text-align:left'>This experiment will take around 2 minutes, and you will be paid 40 cents.</p>  <p style='text-align:left' font size=""1"">By clicking on the button below, you agree to participate in this experiment, which is conducted by researchers at the University of Stuttgart. You may withdraw from this experiment at any time. The data collected will be anonymous and confidential. If you have any questions, you may contact the requester through Prolific's platform, or directly at st180735@stud.uni-stuttgart.de.</p>",NA,NA,16ac59cd-1ae1-4265-b3af-4cb7956ddb71,2024-07-19 15:30:15 CEST
11572,2,html-slider-response,3,31546,0.0-2.0-0.0,NA,<b>Steven:</b><em>  Does Emma know that Raul cheated on his wife?</em> <br> <br> Is Steven asking whether Raul cheated on his wife?,50,NA,16ac59cd-1ae1-4265-b3af-4cb7956ddb71,2024-07-19 15:30:15 CEST
11514,100,html-slider-response,4,43062,0.0-2.0-0.1,NA,<b>Frank:</b><em>  Is Linda right that Danny ate the last cupcake?</em> <br> <br> Is Frank asking whether Danny ate the last cupcake?,50,NA,16ac59cd-1ae1-4265-b3af-4cb7956ddb71,2024-07-19 15:30:15 CEST
6628,100,html-slider-response,5,49691,0.0-2.0-0.2,NA,<b>Mary:</b><em> Did Arthur take a French course?</em> <br> <br> Is Mary asking whether Arthur took a French course?,50,NA,16ac59cd-1ae1-4265-b3af-4cb7956ddb71,2024-07-19 15:30:15 CEST
15849,9,html-slider-response,6,65547,0.0-2.0-0.3,NA,<b>Isabel:</b><em>  Did Mia confess that Greg bought a new car?</em> <br> <br> Is Isabel asking whether Greg bought a new car?,50,NA,16ac59cd-1ae1-4265-b3af-4cb7956ddb71,2024-07-19 15:30:15 CEST
13174,70,html-slider-response,7,78723,0.0-2.0-0.4,NA,<b>Alice:</b><em>  Did Tony confirm that Lucy broke the plate?</em> <br> <br> Is Alice asking whether Lucy broke the plate?,50,NA,16ac59cd-1ae1-4265-b3af-4cb7956ddb71,2024-07-19 15:30:15 CEST
7534,0,html-slider-response,8,86260,0.0-2.0-0.5,NA,"<b>Charlie:</b><em> Did Jack, who saw the murder, run away?</em> <br> <br> Is Charlie asking whether Jack saw the murder?",50,NA,16ac59cd-1ae1-4265-b3af-4cb7956ddb71,2024-07-19 15:30:15 CEST
7477,0,html-slider-response,9,93739,0.0-2.0-0.6,NA,"<b>Dawn:</b><em> Did the manager report Ann, who stole the money?</em> <br> <br> Is Dawn asking whether Ann stole the money?",50,NA,16ac59cd-1ae1-4265-b3af-4cb7956ddb71,2024-07-19 15:30:15 CEST
4857,0,html-slider-response,10,98598,0.0-2.0-0.7,NA,<b>Robert:</b><em> Does Betsy have a cat?</em> <br> <br> Is Robert asking whether Betsy loves apples?,50,NA,16ac59cd-1ae1-4265-b3af-4cb7956ddb71,2024-07-19 15:30:15 CEST
7902,3,html-slider-response,11,106501,0.0-2.0-0.8,NA,<b>Leo:</b><em>  Did Patricia discover that Dustin lost his key?</em> <br> <br> Is Leo asking whether Dustin lost his key?,50,NA,16ac59cd-1ae1-4265-b3af-4cb7956ddb71,2024-07-19 15:30:15 CEST
8140,"{""P0_Q0"":null,""age"":""31"",""gender"":""female"",""language"":""yes"",""amE"":""yes"",""comments"":""""}",survey,12,114731,0.0-3.0,NA,NA,NA,[],16ac59cd-1ae1-4265-b3af-4cb7956ddb71,2024-07-19 15:30:15 CEST
7676,"{""Q0"":""Mary""}",survey-text,0,7688,0.0-0.0-0.0,TRUE,NA,NA,NA,8a8d191d-40eb-4908-b4cc-44416fcc1e9e,2024-07-19 15:30:29 CEST
1055,0,html-button-response,1,8744,0.0-0.0-3.0-0.0,NA,<p style='text-align:left'><b> Correct response! You are a human :) </b><br><br></p>,NA,NA,8a8d191d-40eb-4908-b4cc-44416fcc1e9e,2024-07-19 15:30:29 CEST
5891,0,html-button-response,2,14636,0.0-1.0,NA,"<h3>Instructions</h3>  <p style='text-align:left'>In this experiment, you will read nine questions asked by a speaker, as in this example, where Candy asks a question.</p>  <p style='text-align:left'> <b>Candy</b>: <i>Did Cassandra suggest that the house is big? </i> </p>  <p style='text-align:left'> We then ask you to judge what the speaker is asking about, for example: </p>  <p style='text-align:left'> Is Candy asking whether the house is big? </p>  <p style='text-align:left'>You give your response on a slider marked 'no' at one end and 'yes' at the other.</p>  <p style='text-align:left'>This experiment will take around 2 minutes, and you will be paid 40 cents.</p>  <p style='text-align:left' font size=""1"">By clicking on the button below, you agree to participate in this experiment, which is conducted by researchers at the University of Stuttgart. You may withdraw from this experiment at any time. The data collected will be anonymous and confidential. If you have any questions, you may contact the requester through Prolific's platform, or directly at st180735@stud.uni-stuttgart.de.</p>",NA,NA,8a8d191d-40eb-4908-b4cc-44416fcc1e9e,2024-07-19 15:30:29 CEST
14582,100,html-slider-response,3,29218,0.0-2.0-0.0,NA,<b>Vincent:</b><em>  Is David right that Ann stole the money?</em> <br> <br> Is Vincent asking whether Ann stole the money?,50,NA,8a8d191d-40eb-4908-b4cc-44416fcc1e9e,2024-07-19 15:30:29 CEST
3730,0,html-slider-response,4,32950,0.0-2.0-0.1,NA,<b>Robert:</b><em> Does Betsy have a cat?</em> <br> <br> Is Robert asking whether Betsy loves apples?,50,NA,8a8d191d-40eb-4908-b4cc-44416fcc1e9e,2024-07-19 15:30:29 CEST
5468,0,html-slider-response,5,38418,0.0-2.0-0.2,NA,<b>Grace:</b><em>  Did Sophia confess that Jack saw the murder?</em> <br> <br> Is Grace asking whether Jack saw the murder?,50,NA,8a8d191d-40eb-4908-b4cc-44416fcc1e9e,2024-07-19 15:30:29 CEST
5654,100,html-slider-response,6,44073,0.0-2.0-0.3,NA,<b>Noah:</b><em>  Does Emma know that Raul cheated on his wife?</em> <br> <br> Is Noah asking whether Raul cheated on his wife?,50,NA,8a8d191d-40eb-4908-b4cc-44416fcc1e9e,2024-07-19 15:30:29 CEST
6927,100,html-slider-response,7,51000,0.0-2.0-0.4,NA,<b>Oliver:</b><em>  Did Patricia confirm that Dustin lost his key?</em> <br> <br> Is Oliver asking whether Dustin lost his key?,50,NA,8a8d191d-40eb-4908-b4cc-44416fcc1e9e,2024-07-19 15:30:29 CEST
5503,0,html-slider-response,8,56503,0.0-2.0-0.5,NA,"<b>Nina:</b><em> Does Greg, who bought a new car, have a driver's license?</em> <br> <br> Is Nina asking whether Greg bought a new car?",50,NA,8a8d191d-40eb-4908-b4cc-44416fcc1e9e,2024-07-19 15:30:29 CEST
6814,100,html-slider-response,9,63318,0.0-2.0-0.6,NA,<b>Mary:</b><em> Did Arthur take a French course?</em> <br> <br> Is Mary asking whether Arthur took a French course?,50,NA,8a8d191d-40eb-4908-b4cc-44416fcc1e9e,2024-07-19 15:30:29 CEST
15513,100,html-slider-response,10,78832,0.0-2.0-0.7,NA,<b>Charlie:</b><em>  Did Linda discover that Danny ate the last cupcake?</em> <br> <br> Is Charlie asking whether Danny ate the last cupcake?,50,NA,8a8d191d-40eb-4908-b4cc-44416fcc1e9e,2024-07-19 15:30:29 CEST
7947,0,html-slider-response,11,86779,0.0-2.0-0.8,NA,"<b>Ken:</b><em> Did the chef scold Lucy, who broke the plate?</em> <br> <br> Is Ken asking whether Lucy broke the plate?",50,NA,8a8d191d-40eb-4908-b4cc-44416fcc1e9e,2024-07-19 15:30:29 CEST
9535,"{""P0_Q0"":null,""age"":""40"",""gender"":""female"",""language"":""yes"",""amE"":""yes"",""comments"":""""}",survey,12,96351,0.0-3.0,NA,NA,NA,[],8a8d191d-40eb-4908-b4cc-44416fcc1e9e,2024-07-19 15:30:29 CEST
11034,"{""Q0"":""Margaret""}",survey-text,0,11045,0.0-0.0-0.0,TRUE,NA,NA,NA,26869c81-dda4-4131-b0cb-918761d58358,2024-07-19 15:31:14 CEST
