workerid,proliferate.condition.x,block,content,question_type,response,rt,short_trigger,slide_number_in_experiment,trigger,trigger_class,error.x,proliferate.condition.y,age,american,comments,gender,language,error.y,trial
1585,default,block1,olivia,ai,0.81,14574,confess,5,confess,C,NA,default,31,Yes,NA,Male,English/Spanish,NA,1
1585,default,block1,danny,ai,0.71,7399,discover,6,discover,C,NA,default,31,Yes,NA,Male,English/Spanish,NA,2
1585,default,block1,kids,ai,0.09999999999999998,11399,MC,7,MC,MC,NA,default,31,Yes,NA,Male,English/Spanish,NA,3
1585,default,block1,josh,ai,0.8200000000000001,4748,acknowledge,8,acknowledge,C,NA,default,31,Yes,NA,Male,English/Spanish,NA,4
1585,default,block1,mia,ai,0.56,10221,confirm,9,confirm,C,NA,default,31,Yes,NA,Male,English/Spanish,NA,5
1585,default,block1,mary,ai,0.75,5921,pretend,10,pretend,C,NA,default,31,Yes,NA,Male,English/Spanish,NA,6
1585,default,block1,charley,ai,0.55,8176,prove,11,prove,C,NA,default,31,Yes,NA,Male,English/Spanish,NA,7
1585,default,block1,emily,ai,0.64,5511,reveal,12,reveal,C,NA,default,31,Yes,NA,Male,English/Spanish,NA,8
1585,default,block1,pizza,ai,0.13,7859,MC,13,MC,MC,NA,default,31,Yes,NA,Male,English/Spanish,NA,9
1585,default,block1,sophia,ai,0.76,4876,be_annoyed,14,be_annoyed,C,NA,default,31,Yes,NA,Male,English/Spanish,NA,10
1585,default,block1,grace,ai,0.73,5450,know,15,know,C,NA,default,31,Yes,NA,Male,English/Spanish,NA,11
1585,default,block1,julian,ai,0.76,5234,be_right,16,be_right,C,NA,default,31,Yes,NA,Male,English/Spanish,NA,12
1585,default,block1,jayden,ai,0.71,5745,see,17,see,C,NA,default,31,Yes,NA,Male,English/Spanish,NA,13
1585,default,block1,ballet,ai,0.14,6388,MC,18,MC,MC,NA,default,31,Yes,NA,Male,English/Spanish,NA,14
1585,default,block1,emma,ai,0.64,8257,say,19,say,C,NA,default,31,Yes,NA,Male,English/Spanish,NA,15
1585,default,block1,isabella,ai,0.63,7154,announce,20,announce,C,NA,default,31,Yes,NA,Male,English/Spanish,NA,16
1585,default,block1,hat,ai,0.13,3995,MC,21,MC,MC,NA,default,31,Yes,NA,Male,English/Spanish,NA,17
1585,default,block1,tony,ai,0.64,6121,think,22,think,C,NA,default,31,Yes,NA,Male,English/Spanish,NA,18
1585,default,block1,josie,ai,0.74,6967,inform,23,inform,C,NA,default,31,Yes,NA,Male,English/Spanish,NA,19
1585,default,block1,muffins,ai,0.08999999999999997,7985,MC,24,MC,MC,NA,default,31,Yes,NA,Male,English/Spanish,NA,20
1585,default,block1,jackson,ai,0.71,5813,hear,25,hear,C,NA,default,31,Yes,NA,Male,English/Spanish,NA,21
1585,default,block1,owen,ai,0.74,6651,suggest,26,suggest,C,NA,default,31,Yes,NA,Male,English/Spanish,NA,22
1585,default,block1,jon,ai,0.62,4643,establish,27,establish,C,NA,default,31,Yes,NA,Male,English/Spanish,NA,23
1585,default,block1,garage,ai,0.15000000000000002,5756,MC,28,MC,MC,NA,default,31,Yes,NA,Male,English/Spanish,NA,24
1585,default,block1,zoe,ai,0.7,5681,admit,29,admit,C,NA,default,31,Yes,NA,Male,English/Spanish,NA,25
1585,default,block1,frank,ai,0.6699999999999999,3978,demonstrate,30,demonstrate,C,NA,default,31,Yes,NA,Male,English/Spanish,NA,26
1585,default,block2,isabella,projective,0.16,15110,announce,32,announce,C,NA,default,31,Yes,NA,Male,English/Spanish,NA,27
1585,default,block2,josie,projective,0.82,5501,inform,33,inform,C,NA,default,31,Yes,NA,Male,English/Spanish,NA,28
1585,default,block2,mary,projective,0.19,6608,pretend,34,pretend,C,NA,default,31,Yes,NA,Male,English/Spanish,NA,29
1585,default,block2,emily,projective,0.85,4542,reveal,35,reveal,C,NA,default,31,Yes,NA,Male,English/Spanish,NA,30
1585,default,block2,owen,projective,0.32,10107,suggest,36,suggest,C,NA,default,31,Yes,NA,Male,English/Spanish,NA,31
1585,default,block2,ballet,projective,0.21,5268,MC,37,MC,MC,NA,default,31,Yes,NA,Male,English/Spanish,NA,32
1585,default,block2,olivia,projective,0.59,7826,confess,38,confess,C,NA,default,31,Yes,NA,Male,English/Spanish,NA,33
1585,default,block2,kids,projective,0.14,6752,MC,39,MC,MC,NA,default,31,Yes,NA,Male,English/Spanish,NA,34
1585,default,block2,emma,projective,0.18,4468,say,40,say,C,NA,default,31,Yes,NA,Male,English/Spanish,NA,35
1585,default,block2,jon,projective,0.49,4418,establish,41,establish,C,NA,default,31,Yes,NA,Male,English/Spanish,NA,36
1585,default,block2,julian,projective,0.16,4521,be_right,42,be_right,C,NA,default,31,Yes,NA,Male,English/Spanish,NA,37
1585,default,block2,garage,projective,0.15,3697,MC,43,MC,MC,NA,default,31,Yes,NA,Male,English/Spanish,NA,38
1585,default,block2,jayden,projective,0.7,9534,see,44,see,C,NA,default,31,Yes,NA,Male,English/Spanish,NA,39
1585,default,block2,frank,projective,0.56,4675,demonstrate,45,demonstrate,C,NA,default,31,Yes,NA,Male,English/Spanish,NA,40
1585,default,block2,zoe,projective,0.49,9009,admit,46,admit,C,NA,default,31,Yes,NA,Male,English/Spanish,NA,41
1585,default,block2,hat,projective,0.16,6225,MC,47,MC,MC,NA,default,31,Yes,NA,Male,English/Spanish,NA,42
1585,default,block2,pizza,projective,0.27,13993,MC,48,MC,MC,NA,default,31,Yes,NA,Male,English/Spanish,NA,43
1585,default,block2,josh,projective,0.76,7729,acknowledge,49,acknowledge,C,NA,default,31,Yes,NA,Male,English/Spanish,NA,44
1585,default,block2,sophia,projective,0.82,7600,be_annoyed,50,be_annoyed,C,NA,default,31,Yes,NA,Male,English/Spanish,NA,45
1585,default,block2,muffins,projective,0.18,6456,MC,51,MC,MC,NA,default,31,Yes,NA,Male,English/Spanish,NA,46
1585,default,block2,danny,projective,0.79,5287,discover,52,discover,C,NA,default,31,Yes,NA,Male,English/Spanish,NA,47
1585,default,block2,grace,projective,0.76,4018,know,53,know,C,NA,default,31,Yes,NA,Male,English/Spanish,NA,48
1585,default,block2,mia,projective,0.25,10825,confirm,54,confirm,C,NA,default,31,Yes,NA,Male,English/Spanish,NA,49
1585,default,block2,jackson,projective,0.79,5323,hear,55,hear,C,NA,default,31,Yes,NA,Male,English/Spanish,NA,50
1585,default,block2,tony,projective,0.21,6161,think,56,think,C,NA,default,31,Yes,NA,Male,English/Spanish,NA,51
1585,default,block2,charley,projective,0.67,4783,prove,57,prove,C,NA,default,31,Yes,NA,Male,English/Spanish,NA,52
1514,default,block1,pizza,projective,0.33,38746,MC,5,MC,MC,NA,default,23,Yes,NA,Female,English,NA,1
1514,default,block1,jon,projective,0.1,13763,say,6,say,C,NA,default,23,Yes,NA,Female,English,NA,2
1514,default,block1,isabella,projective,0.6,12936,confirm,7,confirm,C,NA,default,23,Yes,NA,Female,English,NA,3
1514,default,block1,sophia,projective,0.55,20267,confess,8,confess,C,NA,default,23,Yes,NA,Female,English,NA,4
1514,default,block1,josh,projective,0.81,41986,prove,9,prove,C,NA,default,23,Yes,NA,Female,English,NA,5
1514,default,block1,mary,projective,1,6741,know,10,know,C,NA,default,23,Yes,NA,Female,English,NA,6
1514,default,block1,hat,projective,0.05,9187,MC,11,MC,MC,NA,default,23,Yes,NA,Female,English,NA,7
1514,default,block1,owen,projective,0.5,18240,think,12,think,C,NA,default,23,Yes,NA,Female,English,NA,8
1514,default,block1,julian,projective,0.97,11928,inform,13,inform,C,NA,default,23,Yes,NA,Female,English,NA,9
1514,default,block1,grace,projective,0.9,14300,acknowledge,14,acknowledge,C,NA,default,23,Yes,NA,Female,English,NA,10
1514,default,block1,garage,projective,0.33,17515,MC,15,MC,MC,NA,default,23,Yes,NA,Female,English,NA,11
1514,default,block1,jackson,projective,0.09,11198,pretend,16,pretend,C,NA,default,23,Yes,NA,Female,English,NA,12
1514,default,block1,muffins,projective,0.21,11162,MC,17,MC,MC,NA,default,23,Yes,NA,Female,English,NA,13
1514,default,block1,kids,projective,0.05,17267,MC,18,MC,MC,NA,default,23,Yes,NA,Female,English,NA,14
1514,default,block1,josie,projective,0.72,10764,be_right,19,be_right,C,NA,default,23,Yes,NA,Female,English,NA,15
1514,default,block1,zoe,projective,0.75,74806,demonstrate,20,demonstrate,C,NA,default,23,Yes,NA,Female,English,NA,16
1514,default,block1,emily,projective,0.66,8343,discover,21,discover,C,NA,default,23,Yes,NA,Female,English,NA,17
1514,default,block1,olivia,projective,0.98,7265,hear,22,hear,C,NA,default,23,Yes,NA,Female,English,NA,18
1514,default,block1,tony,projective,0.33,12379,suggest,23,suggest,C,NA,default,23,Yes,NA,Female,English,NA,19
1514,default,block1,charley,projective,0.45,9578,admit,24,admit,C,NA,default,23,Yes,NA,Female,English,NA,20
1514,default,block1,mia,projective,0.36,20255,reveal,25,reveal,C,NA,default,23,Yes,NA,Female,English,NA,21
1514,default,block1,emma,projective,0.83,9384,see,26,see,C,NA,default,23,Yes,NA,Female,English,NA,22
1514,default,block1,ballet,projective,0.02,12783,MC,27,MC,MC,NA,default,23,Yes,NA,Female,English,NA,23
1514,default,block1,jayden,projective,0.44,10054,establish,28,establish,C,NA,default,23,Yes,NA,Female,English,NA,24
1514,default,block1,danny,projective,0.14,21221,announce,29,announce,C,NA,default,23,Yes,NA,Female,English,NA,25
1514,default,block1,frank,projective,1,14038,be_annoyed,30,be_annoyed,C,NA,default,23,Yes,NA,Female,English,NA,26
1514,default,block2,jackson,ai,0.7,24294,pretend,32,pretend,C,NA,default,23,Yes,NA,Female,English,NA,27
1514,default,block2,emma,ai,0.94,13928,see,33,see,C,NA,default,23,Yes,NA,Female,English,NA,28
1514,default,block2,ballet,ai,0.030000000000000027,10855,MC,34,MC,MC,NA,default,23,Yes,NA,Female,English,NA,29
1514,default,block2,josie,ai,0.020000000000000018,9963,be_right,35,be_right,C,NA,default,23,Yes,NA,Female,English,NA,30
1514,default,block2,hat,ai,0.040000000000000036,5975,MC,36,MC,MC,NA,default,23,Yes,NA,Female,English,NA,31
1514,default,block2,julian,ai,0.96,10772,inform,37,inform,C,NA,default,23,Yes,NA,Female,English,NA,32
1514,default,block2,pizza,ai,0.030000000000000027,8011,MC,38,MC,MC,NA,default,23,Yes,NA,Female,English,NA,33
1514,default,block2,frank,ai,0.96,14629,be_annoyed,39,be_annoyed,C,NA,default,23,Yes,NA,Female,English,NA,34
1514,default,block2,muffins,ai,0.010000000000000009,5193,MC,40,MC,MC,NA,default,23,Yes,NA,Female,English,NA,35
1514,default,block2,garage,ai,0.030000000000000027,8040,MC,41,MC,MC,NA,default,23,Yes,NA,Female,English,NA,36
1514,default,block2,isabella,ai,0.55,18198,confirm,42,confirm,C,NA,default,23,Yes,NA,Female,English,NA,37
1514,default,block2,danny,ai,0.20999999999999996,12265,announce,43,announce,C,NA,default,23,Yes,NA,Female,English,NA,38
1514,default,block2,grace,ai,0.37,12189,acknowledge,44,acknowledge,C,NA,default,23,Yes,NA,Female,English,NA,39
1514,default,block2,jon,ai,0.64,7311,say,45,say,C,NA,default,23,Yes,NA,Female,English,NA,40
1514,default,block2,zoe,ai,0.88,7278,demonstrate,46,demonstrate,C,NA,default,23,Yes,NA,Female,English,NA,41
1514,default,block2,mia,ai,0.30000000000000004,18664,reveal,47,reveal,C,NA,default,23,Yes,NA,Female,English,NA,42
1514,default,block2,charley,ai,0.6699999999999999,6618,admit,48,admit,C,NA,default,23,Yes,NA,Female,English,NA,43
1514,default,block2,owen,ai,0.6799999999999999,5700,think,49,think,C,NA,default,23,Yes,NA,Female,English,NA,44
1514,default,block2,sophia,ai,0.18999999999999995,5444,confess,50,confess,C,NA,default,23,Yes,NA,Female,English,NA,45
1514,default,block2,emily,ai,0.71,5603,discover,51,discover,C,NA,default,23,Yes,NA,Female,English,NA,46
1514,default,block2,olivia,ai,0.88,8823,hear,52,hear,C,NA,default,23,Yes,NA,Female,English,NA,47
1514,default,block2,josh,ai,0.27,6673,prove,53,prove,C,NA,default,23,Yes,NA,Female,English,NA,48
1514,default,block2,kids,ai,0.010000000000000009,5449,MC,54,MC,MC,NA,default,23,Yes,NA,Female,English,NA,49
1514,default,block2,tony,ai,0.83,6150,suggest,55,suggest,C,NA,default,23,Yes,NA,Female,English,NA,50
1514,default,block2,mary,ai,1,9159,know,56,know,C,NA,default,23,Yes,NA,Female,English,NA,51
1514,default,block2,jayden,ai,0.26,5163,establish,57,establish,C,NA,default,23,Yes,NA,Female,English,NA,52
1633,default,block1,muffins,ai,0.09999999999999998,12763,MC,5,MC,MC,NA,default,20,Yes,NA,Female,english,NA,1
1633,default,block1,grace,ai,0.07999999999999996,9200,say,6,say,C,NA,default,20,Yes,NA,Female,english,NA,2
1633,default,block1,josie,ai,0.20999999999999996,12184,reveal,7,reveal,C,NA,default,20,Yes,NA,Female,english,NA,3
1633,default,block1,kids,ai,0.13,6410,MC,8,MC,MC,NA,default,20,Yes,NA,Female,english,NA,4
1633,default,block1,zoe,ai,0.26,5695,suggest,9,suggest,C,NA,default,20,Yes,NA,Female,english,NA,5
1633,default,block1,jackson,ai,0.5700000000000001,9232,be_right,10,be_right,C,NA,default,20,Yes,NA,Female,english,NA,6
1633,default,block1,hat,ai,0.13,5002,MC,11,MC,MC,NA,default,20,Yes,NA,Female,english,NA,7
1633,default,block1,emily,ai,0.86,3706,be_annoyed,12,be_annoyed,C,NA,default,20,Yes,NA,Female,english,NA,8
1633,default,block1,ballet,ai,0.15000000000000002,5062,MC,13,MC,MC,NA,default,20,Yes,NA,Female,english,NA,9
1633,default,block1,tony,ai,0.83,9713,pretend,14,pretend,C,NA,default,20,Yes,NA,Female,english,NA,10
1633,default,block1,charley,ai,0.76,7557,demonstrate,15,demonstrate,C,NA,default,20,Yes,NA,Female,english,NA,11
1633,default,block1,mary,ai,0.6599999999999999,6067,inform,16,inform,C,NA,default,20,Yes,NA,Female,english,NA,12
1633,default,block1,isabella,ai,0.74,4725,announce,17,announce,C,NA,default,20,Yes,NA,Female,english,NA,13
1633,default,block1,frank,ai,0.73,3783,confirm,18,confirm,C,NA,default,20,Yes,NA,Female,english,NA,14
1633,default,block1,emma,ai,0.94,5029,know,19,know,C,NA,default,20,Yes,NA,Female,english,NA,15
1633,default,block1,owen,ai,0.83,5705,establish,20,establish,C,NA,default,20,Yes,NA,Female,english,NA,16
1633,default,block1,danny,ai,0.86,3317,acknowledge,21,acknowledge,C,NA,default,20,Yes,NA,Female,english,NA,17
1633,default,block1,jon,ai,0.91,3081,think,22,think,C,NA,default,20,Yes,NA,Female,english,NA,18
1633,default,block1,sophia,ai,0.84,3686,discover,23,discover,C,NA,default,20,Yes,NA,Female,english,NA,19
1633,default,block1,mia,ai,0.89,6294,prove,24,prove,C,NA,default,20,Yes,NA,Female,english,NA,20
1633,default,block1,josh,ai,0.9,3807,see,25,see,C,NA,default,20,Yes,NA,Female,english,NA,21
1633,default,block1,julian,ai,0.89,5746,confess,26,confess,C,NA,default,20,Yes,NA,Female,english,NA,22
1633,default,block1,jayden,ai,0.92,3404,hear,27,hear,C,NA,default,20,Yes,NA,Female,english,NA,23
1633,default,block1,garage,ai,0.08999999999999997,5943,MC,28,MC,MC,NA,default,20,Yes,NA,Female,english,NA,24
1633,default,block1,olivia,ai,0.71,11972,admit,29,admit,C,NA,default,20,Yes,NA,Female,english,NA,25
1633,default,block1,pizza,ai,0.10999999999999999,3347,MC,30,MC,MC,NA,default,20,Yes,NA,Female,english,NA,26
1633,default,block2,kids,projective,0.11,21594,MC,32,MC,MC,NA,default,20,Yes,NA,Female,english,NA,27
1633,default,block2,josie,projective,0.2,8097,reveal,33,reveal,C,NA,default,20,Yes,NA,Female,english,NA,28
1633,default,block2,zoe,projective,0.29,5801,suggest,34,suggest,C,NA,default,20,Yes,NA,Female,english,NA,29
1633,default,block2,jon,projective,0.34,4935,think,35,think,C,NA,default,20,Yes,NA,Female,english,NA,30
1633,default,block2,josh,projective,0.87,6238,see,36,see,C,NA,default,20,Yes,NA,Female,english,NA,31
1633,default,block2,ballet,projective,0.18,6367,MC,37,MC,MC,NA,default,20,Yes,NA,Female,english,NA,32
1633,default,block2,jackson,projective,0.07,7411,be_right,38,be_right,C,NA,default,20,Yes,NA,Female,english,NA,33
1633,default,block2,frank,projective,0.27,11610,confirm,39,confirm,C,NA,default,20,Yes,NA,Female,english,NA,34
1633,default,block2,danny,projective,0.84,6778,acknowledge,40,acknowledge,C,NA,default,20,Yes,NA,Female,english,NA,35
1633,default,block2,hat,projective,0.19,4938,MC,41,MC,MC,NA,default,20,Yes,NA,Female,english,NA,36
1633,default,block2,charley,projective,0.81,4091,demonstrate,42,demonstrate,C,NA,default,20,Yes,NA,Female,english,NA,37
1633,default,block2,tony,projective,0.3,6792,pretend,43,pretend,C,NA,default,20,Yes,NA,Female,english,NA,38
1633,default,block2,muffins,projective,0.07,5298,MC,44,MC,MC,NA,default,20,Yes,NA,Female,english,NA,39
1633,default,block2,mia,projective,0.8,6845,prove,45,prove,C,NA,default,20,Yes,NA,Female,english,NA,40
1633,default,block2,isabella,projective,0.85,3871,announce,46,announce,C,NA,default,20,Yes,NA,Female,english,NA,41
1633,default,block2,garage,projective,0.14,3994,MC,47,MC,MC,NA,default,20,Yes,NA,Female,english,NA,42
1633,default,block2,mary,projective,0.9,7137,inform,48,inform,C,NA,default,20,Yes,NA,Female,english,NA,43
1633,default,block2,pizza,projective,0.13,3245,MC,49,MC,MC,NA,default,20,Yes,NA,Female,english,NA,44
1633,default,block2,owen,projective,0.71,5124,establish,50,establish,C,NA,default,20,Yes,NA,Female,english,NA,45
1633,default,block2,emma,projective,0.79,3808,know,51,know,C,NA,default,20,Yes,NA,Female,english,NA,46
1633,default,block2,julian,projective,0.89,3637,confess,52,confess,C,NA,default,20,Yes,NA,Female,english,NA,47
1633,default,block2,jayden,projective,0.89,2739,hear,53,hear,C,NA,default,20,Yes,NA,Female,english,NA,48
1633,default,block2,grace,projective,0.21,6268,say,54,say,C,NA,default,20,Yes,NA,Female,english,NA,49
1633,default,block2,olivia,projective,0.67,5528,admit,55,admit,C,NA,default,20,Yes,NA,Female,english,NA,50
1633,default,block2,emily,projective,0.85,3919,be_annoyed,56,be_annoyed,C,NA,default,20,Yes,NA,Female,english,NA,51
1633,default,block2,sophia,projective,0.88,4207,discover,57,discover,C,NA,default,20,Yes,NA,Female,english,NA,52
1484,default,block1,josie,projective,1,13543,hear,5,hear,C,NA,default,21,Yes,NA,Female,English,NA,1
1484,default,block1,mia,projective,1,9797,know,6,know,C,NA,default,21,Yes,NA,Female,English,NA,2
1484,default,block1,isabella,projective,0.36,12241,establish,7,establish,C,NA,default,21,Yes,NA,Female,English,NA,3
1484,default,block1,danny,projective,0.15,8617,suggest,8,suggest,C,NA,default,21,Yes,NA,Female,English,NA,4
1484,default,block1,mary,projective,0.03,6120,prove,9,prove,C,NA,default,21,Yes,NA,Female,English,NA,5
1484,default,block1,muffins,projective,0.03,10383,MC,10,MC,MC,NA,default,21,Yes,NA,Female,English,NA,6
1484,default,block1,jon,projective,0.2,7616,confess,11,confess,C,NA,default,21,Yes,NA,Female,English,NA,7
1484,default,block1,pizza,projective,0,10631,MC,12,MC,MC,NA,default,21,Yes,NA,Female,English,NA,8
1484,default,block1,grace,projective,1,4297,see,13,see,C,NA,default,21,Yes,NA,Female,English,NA,9
1484,default,block1,emily,projective,0.98,4882,acknowledge,14,acknowledge,C,NA,default,21,Yes,NA,Female,English,NA,10
1484,default,block1,ballet,projective,0,7189,MC,15,MC,MC,NA,default,21,Yes,NA,Female,English,NA,11
1484,default,block1,hat,projective,0.04,4657,MC,16,MC,MC,NA,default,21,Yes,NA,Female,English,NA,12
1484,default,block1,josh,projective,0.97,5254,discover,17,discover,C,NA,default,21,Yes,NA,Female,English,NA,13
1484,default,block1,tony,projective,0.03,5714,admit,18,admit,C,NA,default,21,Yes,NA,Female,English,NA,14
1484,default,block1,garage,projective,0.03,7357,MC,19,MC,MC,NA,default,21,Yes,NA,Female,English,NA,15
1484,default,block1,julian,projective,0.09,6299,think,20,think,C,NA,default,21,Yes,NA,Female,English,NA,16
1484,default,block1,kids,projective,0.06,5906,MC,21,MC,MC,NA,default,21,Yes,NA,Female,English,NA,17
1484,default,block1,sophia,projective,0.29,9585,pretend,22,pretend,C,NA,default,21,Yes,NA,Female,English,NA,18
1484,default,block1,jayden,projective,0.01,6783,say,23,say,C,NA,default,21,Yes,NA,Female,English,NA,19
1484,default,block1,emma,projective,0.22,6806,confirm,24,confirm,C,NA,default,21,Yes,NA,Female,English,NA,20
1484,default,block1,charley,projective,0.97,6806,inform,25,inform,C,NA,default,21,Yes,NA,Female,English,NA,21
1484,default,block1,jackson,projective,0.95,7638,announce,26,announce,C,NA,default,21,Yes,NA,Female,English,NA,22
1484,default,block1,frank,projective,0.98,3656,demonstrate,27,demonstrate,C,NA,default,21,Yes,NA,Female,English,NA,23
1484,default,block1,zoe,projective,0.27,6704,be_right,28,be_right,C,NA,default,21,Yes,NA,Female,English,NA,24
1484,default,block1,olivia,projective,0.96,4365,be_annoyed,29,be_annoyed,C,NA,default,21,Yes,NA,Female,English,NA,25
1484,default,block1,owen,projective,0.97,6188,reveal,30,reveal,C,NA,default,21,Yes,NA,Female,English,NA,26
1484,default,block2,sophia,ai,0.97,9562,pretend,32,pretend,C,NA,default,21,Yes,NA,Female,English,NA,27
1484,default,block2,charley,ai,0.94,5399,inform,33,inform,C,NA,default,21,Yes,NA,Female,English,NA,28
1484,default,block2,garage,ai,0.030000000000000027,7335,MC,34,MC,MC,NA,default,21,Yes,NA,Female,English,NA,29
1484,default,block2,kids,ai,0.050000000000000044,5118,MC,35,MC,MC,NA,default,21,Yes,NA,Female,English,NA,30
1484,default,block2,pizza,ai,0.030000000000000027,4972,MC,36,MC,MC,NA,default,21,Yes,NA,Female,English,NA,31
1484,default,block2,jayden,ai,0.9299999999999999,4691,say,37,say,C,NA,default,21,Yes,NA,Female,English,NA,32
1484,default,block2,emily,ai,0.86,5422,acknowledge,38,acknowledge,C,NA,default,21,Yes,NA,Female,English,NA,33
1484,default,block2,olivia,ai,0.97,4016,be_annoyed,39,be_annoyed,C,NA,default,21,Yes,NA,Female,English,NA,34
1484,default,block2,frank,ai,0.87,4061,demonstrate,40,demonstrate,C,NA,default,21,Yes,NA,Female,English,NA,35
1484,default,block2,ballet,ai,0.020000000000000018,3667,MC,41,MC,MC,NA,default,21,Yes,NA,Female,English,NA,36
1484,default,block2,mia,ai,0.84,4174,know,42,know,C,NA,default,21,Yes,NA,Female,English,NA,37
1484,default,block2,zoe,ai,0.8200000000000001,5974,be_right,43,be_right,C,NA,default,21,Yes,NA,Female,English,NA,38
1484,default,block2,grace,ai,0.86,4757,see,44,see,C,NA,default,21,Yes,NA,Female,English,NA,39
1484,default,block2,muffins,ai,0.030000000000000027,3971,MC,45,MC,MC,NA,default,21,Yes,NA,Female,English,NA,40
1484,default,block2,josh,ai,0.92,4389,discover,46,discover,C,NA,default,21,Yes,NA,Female,English,NA,41
1484,default,block2,julian,ai,0.8200000000000001,4446,think,47,think,C,NA,default,21,Yes,NA,Female,English,NA,42
1484,default,block2,isabella,ai,0.96,5858,establish,48,establish,C,NA,default,21,Yes,NA,Female,English,NA,43
1484,default,block2,tony,ai,0.98,4510,admit,49,admit,C,NA,default,21,Yes,NA,Female,English,NA,44
1484,default,block2,josie,ai,0.98,4950,hear,50,hear,C,NA,default,21,Yes,NA,Female,English,NA,45
1484,default,block2,mary,ai,0.99,3127,prove,51,prove,C,NA,default,21,Yes,NA,Female,English,NA,46
1484,default,block2,danny,ai,0.97,3814,suggest,52,suggest,C,NA,default,21,Yes,NA,Female,English,NA,47
1484,default,block2,jon,ai,0.98,2825,confess,53,confess,C,NA,default,21,Yes,NA,Female,English,NA,48
1484,default,block2,emma,ai,0.97,4406,confirm,54,confirm,C,NA,default,21,Yes,NA,Female,English,NA,49
1484,default,block2,jackson,ai,0.98,2903,announce,55,announce,C,NA,default,21,Yes,NA,Female,English,NA,50
1484,default,block2,owen,ai,0.97,5031,reveal,56,reveal,C,NA,default,21,Yes,NA,Female,English,NA,51
1484,default,block2,hat,ai,0.020000000000000018,3553,MC,57,MC,MC,NA,default,21,Yes,NA,Female,English,NA,52
1603,default,block1,jayden,ai,0.020000000000000018,16669,announce,5,announce,C,NA,default,20,Yes,NA,Female,English,NA,1
1603,default,block1,zoe,ai,0.040000000000000036,5477,be_right,6,be_right,C,NA,default,20,Yes,NA,Female,English,NA,2
1603,default,block1,grace,ai,0,7443,confirm,7,confirm,C,NA,default,20,Yes,NA,Female,English,NA,3
1603,default,block1,garage,ai,0,217160,MC,8,MC,MC,NA,default,20,Yes,NA,Female,English,NA,4
1603,default,block1,danny,ai,0,8239,confess,9,confess,C,NA,default,20,Yes,NA,Female,English,NA,5
1603,default,block1,hat,ai,0,5607,MC,10,MC,MC,NA,default,20,Yes,NA,Female,English,NA,6
1603,default,block1,mia,ai,0,18579,reveal,11,reveal,C,NA,default,20,Yes,NA,Female,English,NA,7
1603,default,block1,josie,ai,0.5,25929,prove,12,prove,C,NA,default,20,Yes,NA,Female,English,NA,8
1603,default,block1,charley,ai,0.48,7578,demonstrate,13,demonstrate,C,NA,default,20,Yes,NA,Female,English,NA,9
1603,default,block1,ballet,ai,0,4144,MC,14,MC,MC,NA,default,20,Yes,NA,Female,English,NA,10
1603,default,block1,tony,ai,0.51,10702,discover,15,discover,C,NA,default,20,Yes,NA,Female,English,NA,11
1603,default,block1,emma,ai,0.65,11035,inform,16,inform,C,NA,default,20,Yes,NA,Female,English,NA,12
1603,default,block1,mary,ai,0.49,7009,be_annoyed,17,be_annoyed,C,NA,default,20,Yes,NA,Female,English,NA,13
1603,default,block1,muffins,ai,0,5262,MC,18,MC,MC,NA,default,20,Yes,NA,Female,English,NA,14
1603,default,block1,isabella,ai,0.56,26859,know,19,know,C,NA,default,20,Yes,NA,Female,English,NA,15
1603,default,block1,julian,ai,0,4311,say,20,say,C,NA,default,20,Yes,NA,Female,English,NA,16
1603,default,block1,jackson,ai,0.6,6454,admit,21,admit,C,NA,default,20,Yes,NA,Female,English,NA,17
1603,default,block1,emily,ai,0,6489,suggest,22,suggest,C,NA,default,20,Yes,NA,Female,English,NA,18
1603,default,block1,josh,ai,0.6799999999999999,7282,pretend,23,pretend,C,NA,default,20,Yes,NA,Female,English,NA,19
1603,default,block1,owen,ai,0.69,5772,acknowledge,24,acknowledge,C,NA,default,20,Yes,NA,Female,English,NA,20
1603,default,block1,pizza,ai,0,5755,MC,25,MC,MC,NA,default,20,Yes,NA,Female,English,NA,21
1603,default,block1,frank,ai,0.75,5756,see,26,see,C,NA,default,20,Yes,NA,Female,English,NA,22
1603,default,block1,sophia,ai,0.75,6471,establish,27,establish,C,NA,default,20,Yes,NA,Female,English,NA,23
1603,default,block1,jon,ai,0.7,3544,think,28,think,C,NA,default,20,Yes,NA,Female,English,NA,24
1603,default,block1,kids,ai,0,3776,MC,29,MC,MC,NA,default,20,Yes,NA,Female,English,NA,25
1603,default,block1,olivia,ai,0.6699999999999999,4794,hear,30,hear,C,NA,default,20,Yes,NA,Female,English,NA,26
1603,default,block2,danny,projective,1,9946,confess,32,confess,C,NA,default,20,Yes,NA,Female,English,NA,27
1603,default,block2,jayden,projective,1,4406,announce,33,announce,C,NA,default,20,Yes,NA,Female,English,NA,28
1603,default,block2,mia,projective,1,97799,reveal,34,reveal,C,NA,default,20,Yes,NA,Female,English,NA,29
1603,default,block2,olivia,projective,1,4268,hear,35,hear,C,NA,default,20,Yes,NA,Female,English,NA,30
1603,default,block2,muffins,projective,0.01,4979,MC,36,MC,MC,NA,default,20,Yes,NA,Female,English,NA,31
1603,default,block2,emma,projective,1,5171,inform,37,inform,C,NA,default,20,Yes,NA,Female,English,NA,32
1603,default,block2,pizza,projective,0,3258,MC,38,MC,MC,NA,default,20,Yes,NA,Female,English,NA,33
1603,default,block2,garage,projective,0,5372,MC,39,MC,MC,NA,default,20,Yes,NA,Female,English,NA,34
1603,default,block2,charley,projective,1,11146,demonstrate,40,demonstrate,C,NA,default,20,Yes,NA,Female,English,NA,35
1603,default,block2,mary,projective,1,4318,be_annoyed,41,be_annoyed,C,NA,default,20,Yes,NA,Female,English,NA,36
1603,default,block2,sophia,projective,1,15895,establish,42,establish,C,NA,default,20,Yes,NA,Female,English,NA,37
1603,default,block2,hat,projective,0,4659,MC,43,MC,MC,NA,default,20,Yes,NA,Female,English,NA,38
1603,default,block2,zoe,projective,0,6914,be_right,44,be_right,C,NA,default,20,Yes,NA,Female,English,NA,39
1603,default,block2,kids,projective,0,4417,MC,45,MC,MC,NA,default,20,Yes,NA,Female,English,NA,40
1603,default,block2,tony,projective,1,5958,discover,46,discover,C,NA,default,20,Yes,NA,Female,English,NA,41
1603,default,block2,josie,projective,0,7571,prove,47,prove,C,NA,default,20,Yes,NA,Female,English,NA,42
1603,default,block2,owen,projective,1,22795,acknowledge,48,acknowledge,C,NA,default,20,Yes,NA,Female,English,NA,43
1603,default,block2,josh,projective,0,11235,pretend,49,pretend,C,NA,default,20,Yes,NA,Female,English,NA,44
1603,default,block2,ballet,projective,0,3740,MC,50,MC,MC,NA,default,20,Yes,NA,Female,English,NA,45
1603,default,block2,grace,projective,0,105814,confirm,51,confirm,C,NA,default,20,Yes,NA,Female,English,NA,46
1603,default,block2,frank,projective,1,3325,see,52,see,C,NA,default,20,Yes,NA,Female,English,NA,47
1603,default,block2,isabella,projective,1,10614,know,53,know,C,NA,default,20,Yes,NA,Female,English,NA,48
1603,default,block2,jackson,projective,1,35174,admit,54,admit,C,NA,default,20,Yes,NA,Female,English,NA,49
1603,default,block2,emily,projective,0,9872,suggest,55,suggest,C,NA,default,20,Yes,NA,Female,English,NA,50
1603,default,block2,jon,projective,0,7430,think,56,think,C,NA,default,20,Yes,NA,Female,English,NA,51
1603,default,block2,julian,projective,0,4712,say,57,say,C,NA,default,20,Yes,NA,Female,English,NA,52
1557,default,block1,josh,ai,0.6699999999999999,15236,pretend,5,pretend,C,NA,default,22,Yes,NA,Female,English,NA,1
1557,default,block1,julian,ai,0.35,23775,discover,6,discover,C,NA,default,22,Yes,NA,Female,English,NA,2
1557,default,block1,jayden,ai,0.72,4429,think,7,think,C,NA,default,22,Yes,NA,Female,English,NA,3
1557,default,block1,hat,ai,0.050000000000000044,17399,MC,8,MC,MC,NA,default,22,Yes,NA,Female,English,NA,4
1557,default,block1,charley,ai,0.99,5704,inform,9,inform,C,NA,default,22,Yes,NA,Female,English,NA,5
1557,default,block1,owen,ai,0.9299999999999999,12969,admit,10,admit,C,NA,default,22,Yes,NA,Female,English,NA,6
1557,default,block1,emma,ai,0.97,6598,confess,11,confess,C,NA,default,22,Yes,NA,Female,English,NA,7
1557,default,block1,sophia,ai,0.040000000000000036,5730,be_right,12,be_right,C,NA,default,22,Yes,NA,Female,English,NA,8
1557,default,block1,zoe,ai,0.36,8513,announce,13,announce,C,NA,default,22,Yes,NA,Female,English,NA,9
1557,default,block1,mary,ai,0.29000000000000004,7605,prove,14,prove,C,NA,default,22,Yes,NA,Female,English,NA,10
1557,default,block1,tony,ai,0.97,8199,see,15,see,C,NA,default,22,Yes,NA,Female,English,NA,11
1557,default,block1,mia,ai,0.96,8344,acknowledge,16,acknowledge,C,NA,default,22,Yes,NA,Female,English,NA,12
1557,default,block1,emily,ai,0.96,12024,reveal,17,reveal,C,NA,default,22,Yes,NA,Female,English,NA,13
1557,default,block1,josie,ai,0.33999999999999997,91997,hear,18,hear,C,NA,default,22,Yes,NA,Female,English,NA,14
1557,default,block1,garage,ai,0.030000000000000027,4942,MC,19,MC,MC,NA,default,22,Yes,NA,Female,English,NA,15
1557,default,block1,jon,ai,0.99,6648,demonstrate,20,demonstrate,C,NA,default,22,Yes,NA,Female,English,NA,16
1557,default,block1,jackson,ai,0.31000000000000005,4470,suggest,21,suggest,C,NA,default,22,Yes,NA,Female,English,NA,17
1557,default,block1,olivia,ai,0.98,3492,know,22,know,C,NA,default,22,Yes,NA,Female,English,NA,18
1557,default,block1,danny,ai,0.040000000000000036,6086,establish,23,establish,C,NA,default,22,Yes,NA,Female,English,NA,19
1557,default,block1,ballet,ai,0.020000000000000018,6668,MC,24,MC,MC,NA,default,22,Yes,NA,Female,English,NA,20
1557,default,block1,grace,ai,0.94,4034,be_annoyed,25,be_annoyed,C,NA,default,22,Yes,NA,Female,English,NA,21
1557,default,block1,kids,ai,0.020000000000000018,4647,MC,26,MC,MC,NA,default,22,Yes,NA,Female,English,NA,22
1557,default,block1,frank,ai,0.06000000000000005,4825,confirm,27,confirm,C,NA,default,22,Yes,NA,Female,English,NA,23
1557,default,block1,pizza,ai,0.040000000000000036,6480,MC,28,MC,MC,NA,default,22,Yes,NA,Female,English,NA,24
1557,default,block1,isabella,ai,0.020000000000000018,9604,say,29,say,C,NA,default,22,Yes,NA,Female,English,NA,25
1557,default,block1,muffins,ai,0.08999999999999997,10103,MC,30,MC,MC,NA,default,22,Yes,NA,Female,English,NA,26
1557,default,block2,hat,projective,0.02,6953,MC,32,MC,MC,NA,default,22,Yes,NA,Female,English,NA,27
1557,default,block2,kids,projective,0,5316,MC,33,MC,MC,NA,default,22,Yes,NA,Female,English,NA,28
1557,default,block2,emily,projective,0.01,3394,reveal,34,reveal,C,NA,default,22,Yes,NA,Female,English,NA,29
1557,default,block2,sophia,projective,0.55,5515,be_right,35,be_right,C,NA,default,22,Yes,NA,Female,English,NA,30
1557,default,block2,mary,projective,0.6,3196,prove,36,prove,C,NA,default,22,Yes,NA,Female,English,NA,31
1557,default,block2,julian,projective,0.97,6442,discover,37,discover,C,NA,default,22,Yes,NA,Female,English,NA,32
1557,default,block2,frank,projective,0.62,6837,confirm,38,confirm,C,NA,default,22,Yes,NA,Female,English,NA,33
1557,default,block2,muffins,projective,0.02,5198,MC,39,MC,MC,NA,default,22,Yes,NA,Female,English,NA,34
1557,default,block2,jayden,projective,0.76,7390,think,40,think,C,NA,default,22,Yes,NA,Female,English,NA,35
1557,default,block2,owen,projective,0.18,12488,admit,41,admit,C,NA,default,22,Yes,NA,Female,English,NA,36
1557,default,block2,grace,projective,0.97,10200,be_annoyed,42,be_annoyed,C,NA,default,22,Yes,NA,Female,English,NA,37
1557,default,block2,jackson,projective,0.29,4981,suggest,43,suggest,C,NA,default,22,Yes,NA,Female,English,NA,38
1557,default,block2,mia,projective,0.85,6135,acknowledge,44,acknowledge,C,NA,default,22,Yes,NA,Female,English,NA,39
1557,default,block2,josh,projective,0.32,6246,pretend,45,pretend,C,NA,default,22,Yes,NA,Female,English,NA,40
1557,default,block2,josie,projective,0.97,8721,hear,46,hear,C,NA,default,22,Yes,NA,Female,English,NA,41
1557,default,block2,garage,projective,0.36,5731,MC,47,MC,MC,NA,default,22,Yes,NA,Female,English,NA,42
1557,default,block2,emma,projective,0.48,7813,confess,48,confess,C,NA,default,22,Yes,NA,Female,English,NA,43
1557,default,block2,pizza,projective,0.02,13692,MC,49,MC,MC,NA,default,22,Yes,NA,Female,English,NA,44
1557,default,block2,zoe,projective,0.35,4361,announce,50,announce,C,NA,default,22,Yes,NA,Female,English,NA,45
1557,default,block2,charley,projective,0.66,4696,inform,51,inform,C,NA,default,22,Yes,NA,Female,English,NA,46
1557,default,block2,danny,projective,0.52,9116,establish,52,establish,C,NA,default,22,Yes,NA,Female,English,NA,47
1557,default,block2,tony,projective,0.25,4656,see,53,see,C,NA,default,22,Yes,NA,Female,English,NA,48
1557,default,block2,jon,projective,0.75,2003,demonstrate,54,demonstrate,C,NA,default,22,Yes,NA,Female,English,NA,49
1557,default,block2,ballet,projective,0.06,4499,MC,55,MC,MC,NA,default,22,Yes,NA,Female,English,NA,50
1557,default,block2,olivia,projective,0.95,7123,know,56,know,C,NA,default,22,Yes,NA,Female,English,NA,51
1557,default,block2,isabella,projective,0.15,4143,say,57,say,C,NA,default,22,Yes,NA,Female,English,NA,52
1536,default,block1,sophia,ai,0.020000000000000018,12140,be_right,5,be_right,C,NA,default,35,Yes,NA,Female,english,NA,1
1536,default,block1,hat,ai,0.010000000000000009,9134,MC,6,MC,MC,NA,default,35,Yes,NA,Female,english,NA,2
1536,default,block1,olivia,ai,0.010000000000000009,6412,say,7,say,C,NA,default,35,Yes,NA,Female,english,NA,3
1536,default,block1,zoe,ai,0.71,12266,inform,8,inform,C,NA,default,35,Yes,NA,Female,english,NA,4
1536,default,block1,kids,ai,0.010000000000000009,12274,MC,9,MC,MC,NA,default,35,Yes,NA,Female,english,NA,5
1536,default,block1,tony,ai,0.87,6995,admit,10,admit,C,NA,default,35,Yes,NA,Female,english,NA,6
1536,default,block1,pizza,ai,0.030000000000000027,7144,MC,11,MC,MC,NA,default,35,Yes,NA,Female,english,NA,7
1536,default,block1,mary,ai,0.97,9252,pretend,12,pretend,C,NA,default,35,Yes,NA,Female,english,NA,8
1536,default,block1,josh,ai,0.94,6825,announce,13,announce,C,NA,default,35,Yes,NA,Female,english,NA,9
1536,default,block1,mia,ai,0.92,5833,see,14,see,C,NA,default,35,Yes,NA,Female,english,NA,10
1536,default,block1,garage,ai,0.040000000000000036,7446,MC,15,MC,MC,NA,default,35,Yes,NA,Female,english,NA,11
1536,default,block1,jon,ai,0.84,5966,confess,16,confess,C,NA,default,35,Yes,NA,Female,english,NA,12
1536,default,block1,owen,ai,0.91,7705,be_annoyed,17,be_annoyed,C,NA,default,35,Yes,NA,Female,english,NA,13
1536,default,block1,emily,ai,0.89,4442,reveal,18,reveal,C,NA,default,35,Yes,NA,Female,english,NA,14
1536,default,block1,frank,ai,0.88,3958,demonstrate,19,demonstrate,C,NA,default,35,Yes,NA,Female,english,NA,15
1536,default,block1,josie,ai,0.87,5094,hear,20,hear,C,NA,default,35,Yes,NA,Female,english,NA,16
1536,default,block1,ballet,ai,0.09999999999999998,5295,MC,21,MC,MC,NA,default,35,Yes,NA,Female,english,NA,17
1536,default,block1,jackson,ai,0.86,3238,discover,22,discover,C,NA,default,35,Yes,NA,Female,english,NA,18
1536,default,block1,isabella,ai,0.16000000000000003,17860,confirm,23,confirm,C,NA,default,35,Yes,NA,Female,english,NA,19
1536,default,block1,muffins,ai,0.19999999999999996,3810,MC,24,MC,MC,NA,default,35,Yes,NA,Female,english,NA,20
1536,default,block1,julian,ai,0.07999999999999996,4386,prove,25,prove,C,NA,default,35,Yes,NA,Female,english,NA,21
1536,default,block1,jayden,ai,0.18999999999999995,7599,suggest,26,suggest,C,NA,default,35,Yes,NA,Female,english,NA,22
1536,default,block1,danny,ai,0.63,7683,think,27,think,C,NA,default,35,Yes,NA,Female,english,NA,23
1536,default,block1,emma,ai,0.64,8157,establish,28,establish,C,NA,default,35,Yes,NA,Female,english,NA,24
1536,default,block1,charley,ai,0.71,4516,acknowledge,29,acknowledge,C,NA,default,35,Yes,NA,Female,english,NA,25
1536,default,block1,grace,ai,0.69,6054,know,30,know,C,NA,default,35,Yes,NA,Female,english,NA,26
1536,default,block2,owen,projective,0.85,10272,be_annoyed,32,be_annoyed,C,NA,default,35,Yes,NA,Female,english,NA,27
1536,default,block2,jon,projective,0.75,5825,confess,33,confess,C,NA,default,35,Yes,NA,Female,english,NA,28
1536,default,block2,garage,projective,0.1,5276,MC,34,MC,MC,NA,default,35,Yes,NA,Female,english,NA,29
1536,default,block2,jayden,projective,0.3,5277,suggest,35,suggest,C,NA,default,35,Yes,NA,Female,english,NA,30
1536,default,block2,emily,projective,0.31,3987,reveal,36,reveal,C,NA,default,35,Yes,NA,Female,english,NA,31
1536,default,block2,mary,projective,0.24,8649,pretend,37,pretend,C,NA,default,35,Yes,NA,Female,english,NA,32
1536,default,block2,muffins,projective,0.21,6763,MC,38,MC,MC,NA,default,35,Yes,NA,Female,english,NA,33
1536,default,block2,isabella,projective,0.32,5187,confirm,39,confirm,C,NA,default,35,Yes,NA,Female,english,NA,34
1536,default,block2,jackson,projective,0.54,12352,discover,40,discover,C,NA,default,35,Yes,NA,Female,english,NA,35
1536,default,block2,tony,projective,0.36,8021,admit,41,admit,C,NA,default,35,Yes,NA,Female,english,NA,36
1536,default,block2,olivia,projective,0.22,5346,say,42,say,C,NA,default,35,Yes,NA,Female,english,NA,37
1536,default,block2,emma,projective,0.25,4079,establish,43,establish,C,NA,default,35,Yes,NA,Female,english,NA,38
1536,default,block2,hat,projective,0.27,4608,MC,44,MC,MC,NA,default,35,Yes,NA,Female,english,NA,39
1536,default,block2,mia,projective,0.77,4748,see,45,see,C,NA,default,35,Yes,NA,Female,english,NA,40
1536,default,block2,pizza,projective,0.2,4408,MC,46,MC,MC,NA,default,35,Yes,NA,Female,english,NA,41
1536,default,block2,danny,projective,0.3,5850,think,47,think,C,NA,default,35,Yes,NA,Female,english,NA,42
1536,default,block2,josh,projective,0.52,15144,announce,48,announce,C,NA,default,35,Yes,NA,Female,english,NA,43
1536,default,block2,grace,projective,0.86,5773,know,49,know,C,NA,default,35,Yes,NA,Female,english,NA,44
1536,default,block2,julian,projective,0.24,6420,prove,50,prove,C,NA,default,35,Yes,NA,Female,english,NA,45
1536,default,block2,josie,projective,0.82,7069,hear,51,hear,C,NA,default,35,Yes,NA,Female,english,NA,46
1536,default,block2,zoe,projective,0.77,6133,inform,52,inform,C,NA,default,35,Yes,NA,Female,english,NA,47
1536,default,block2,charley,projective,0.46,12868,acknowledge,53,acknowledge,C,NA,default,35,Yes,NA,Female,english,NA,48
1536,default,block2,ballet,projective,0.27,5636,MC,54,MC,MC,NA,default,35,Yes,NA,Female,english,NA,49
1536,default,block2,sophia,projective,0.26,4548,be_right,55,be_right,C,NA,default,35,Yes,NA,Female,english,NA,50
1536,default,block2,frank,projective,0.23,6224,demonstrate,56,demonstrate,C,NA,default,35,Yes,NA,Female,english,NA,51
1536,default,block2,kids,projective,0.26,7990,MC,57,MC,MC,NA,default,35,Yes,NA,Female,english,NA,52
1666,default,block1,ballet,ai,0.10999999999999999,26208,MC,5,MC,MC,NA,default,18,Yes,NA,Female,English,NA,1
1666,default,block1,isabella,ai,0.49,16976,confirm,6,confirm,C,NA,default,18,Yes,NA,Female,English,NA,2
1666,default,block1,mia,ai,0.08999999999999997,8946,be_right,7,be_right,C,NA,default,18,Yes,NA,Female,English,NA,3
1666,default,block1,emily,ai,0.24,13825,say,8,say,C,NA,default,18,Yes,NA,Female,English,NA,4
1666,default,block1,jackson,ai,0.78,12032,discover,9,discover,C,NA,default,18,Yes,NA,Female,English,NA,5
1666,default,block1,josh,ai,0.83,12048,think,10,think,C,NA,default,18,Yes,NA,Female,English,NA,6
1666,default,block1,danny,ai,0.73,8201,inform,11,inform,C,NA,default,18,Yes,NA,Female,English,NA,7
1666,default,block1,tony,ai,0.5800000000000001,8162,announce,12,announce,C,NA,default,18,Yes,NA,Female,English,NA,8
1666,default,block1,emma,ai,0.7,31349,know,13,know,C,NA,default,18,Yes,NA,Female,English,NA,9
1666,default,block1,olivia,ai,0.86,6233,pretend,14,pretend,C,NA,default,18,Yes,NA,Female,English,NA,10
1666,default,block1,frank,ai,0.85,14588,be_annoyed,15,be_annoyed,C,NA,default,18,Yes,NA,Female,English,NA,11
1666,default,block1,kids,ai,0.07999999999999996,10186,MC,16,MC,MC,NA,default,18,Yes,NA,Female,English,NA,12
1666,default,block1,owen,ai,0.75,11652,confess,17,confess,C,NA,default,18,Yes,NA,Female,English,NA,13
1666,default,block1,julian,ai,0.5800000000000001,8700,suggest,18,suggest,C,NA,default,18,Yes,NA,Female,English,NA,14
1666,default,block1,zoe,ai,0.39,22131,demonstrate,19,demonstrate,C,NA,default,18,Yes,NA,Female,English,NA,15
1666,default,block1,mary,ai,0.21999999999999997,6231,reveal,20,reveal,C,NA,default,18,Yes,NA,Female,English,NA,16
1666,default,block1,grace,ai,0.41000000000000003,8914,admit,21,admit,C,NA,default,18,Yes,NA,Female,English,NA,17
1666,default,block1,jon,ai,0.53,7002,acknowledge,22,acknowledge,C,NA,default,18,Yes,NA,Female,English,NA,18
1666,default,block1,pizza,ai,0.030000000000000027,7644,MC,23,MC,MC,NA,default,18,Yes,NA,Female,English,NA,19
1666,default,block1,garage,ai,0.06000000000000005,16110,MC,24,MC,MC,NA,default,18,Yes,NA,Female,English,NA,20
1666,default,block1,josie,ai,0.62,8345,hear,25,hear,C,NA,default,18,Yes,NA,Female,English,NA,21
1666,default,block1,sophia,ai,0.42000000000000004,4519,see,26,see,C,NA,default,18,Yes,NA,Female,English,NA,22
1666,default,block1,hat,ai,0.010000000000000009,36695,MC,27,MC,MC,NA,default,18,Yes,NA,Female,English,NA,23
1666,default,block1,jayden,ai,0.55,3702,establish,28,establish,C,NA,default,18,Yes,NA,Female,English,NA,24
1666,default,block1,muffins,ai,0.030000000000000027,3143,MC,29,MC,MC,NA,default,18,Yes,NA,Female,English,NA,25
1666,default,block1,charley,ai,0.16000000000000003,6166,prove,30,prove,C,NA,default,18,Yes,NA,Female,English,NA,26
1666,default,block2,garage,projective,0.13,8393,MC,32,MC,MC,NA,default,18,Yes,NA,Female,English,NA,27
1666,default,block2,josh,projective,0.2,12898,think,33,think,C,NA,default,18,Yes,NA,Female,English,NA,28
1666,default,block2,ballet,projective,0.06,4778,MC,34,MC,MC,NA,default,18,Yes,NA,Female,English,NA,29
1666,default,block2,isabella,projective,0.7,5681,confirm,35,confirm,C,NA,default,18,Yes,NA,Female,English,NA,30
1666,default,block2,mia,projective,0.3,4921,be_right,36,be_right,C,NA,default,18,Yes,NA,Female,English,NA,31
1666,default,block2,emma,projective,0.94,7443,know,37,know,C,NA,default,18,Yes,NA,Female,English,NA,32
1666,default,block2,frank,projective,0.92,2781,be_annoyed,38,be_annoyed,C,NA,default,18,Yes,NA,Female,English,NA,33
1666,default,block2,tony,projective,0.81,5389,announce,39,announce,C,NA,default,18,Yes,NA,Female,English,NA,34
1666,default,block2,olivia,projective,0.21,8037,pretend,40,pretend,C,NA,default,18,Yes,NA,Female,English,NA,35
1666,default,block2,julian,projective,0.2,4636,suggest,41,suggest,C,NA,default,18,Yes,NA,Female,English,NA,36
1666,default,block2,muffins,projective,0.16,15337,MC,42,MC,MC,NA,default,18,Yes,NA,Female,English,NA,37
1666,default,block2,danny,projective,0.87,17251,inform,43,inform,C,NA,default,18,Yes,NA,Female,English,NA,38
1666,default,block2,jayden,projective,0.39,5720,establish,44,establish,C,NA,default,18,Yes,NA,Female,English,NA,39
1666,default,block2,grace,projective,0.67,6762,admit,45,admit,C,NA,default,18,Yes,NA,Female,English,NA,40
1666,default,block2,sophia,projective,0.93,17018,see,46,see,C,NA,default,18,Yes,NA,Female,English,NA,41
1666,default,block2,emily,projective,0.26,4569,say,47,say,C,NA,default,18,Yes,NA,Female,English,NA,42
1666,default,block2,charley,projective,0.18,2805,prove,48,prove,C,NA,default,18,Yes,NA,Female,English,NA,43
1666,default,block2,zoe,projective,0.54,6015,demonstrate,49,demonstrate,C,NA,default,18,Yes,NA,Female,English,NA,44
1666,default,block2,hat,projective,0.24,9532,MC,50,MC,MC,NA,default,18,Yes,NA,Female,English,NA,45
1666,default,block2,owen,projective,0.25,5464,confess,51,confess,C,NA,default,18,Yes,NA,Female,English,NA,46
1666,default,block2,josie,projective,0.91,7151,hear,52,hear,C,NA,default,18,Yes,NA,Female,English,NA,47
1666,default,block2,jon,projective,0.81,4695,acknowledge,53,acknowledge,C,NA,default,18,Yes,NA,Female,English,NA,48
1666,default,block2,pizza,projective,0.03,9960,MC,54,MC,MC,NA,default,18,Yes,NA,Female,English,NA,49
1666,default,block2,mary,projective,0.92,3791,reveal,55,reveal,C,NA,default,18,Yes,NA,Female,English,NA,50
1666,default,block2,jackson,projective,0.86,6792,discover,56,discover,C,NA,default,18,Yes,NA,Female,English,NA,51
1666,default,block2,kids,projective,0.16,5513,MC,57,MC,MC,NA,default,18,Yes,NA,Female,English,NA,52
1559,default,block1,muffins,ai,0.010000000000000009,13083,MC,5,MC,MC,NA,default,18,Yes,NA,Female,English,NA,1
1559,default,block1,emily,ai,0.91,18547,prove,6,prove,C,NA,default,18,Yes,NA,Female,English,NA,2
1559,default,block1,julian,ai,1,14596,demonstrate,7,demonstrate,C,NA,default,18,Yes,NA,Female,English,NA,3
1559,default,block1,pizza,ai,0,28462,MC,8,MC,MC,NA,default,18,Yes,NA,Female,English,NA,4
1559,default,block1,sophia,ai,1,10181,inform,9,inform,C,NA,default,18,Yes,NA,Female,English,NA,5
1559,default,block1,danny,ai,0.9,9093,say,10,say,C,NA,default,18,Yes,NA,Female,English,NA,6
1559,default,block1,josh,ai,1,10125,acknowledge,11,acknowledge,C,NA,default,18,Yes,NA,Female,English,NA,7
1559,default,block1,mary,ai,0.94,6941,admit,12,admit,C,NA,default,18,Yes,NA,Female,English,NA,8
1559,default,block1,hat,ai,0,8289,MC,13,MC,MC,NA,default,18,Yes,NA,Female,English,NA,9
1559,default,block1,isabella,ai,1,7633,think,14,think,C,NA,default,18,Yes,NA,Female,English,NA,10
1559,default,block1,kids,ai,0,7675,MC,15,MC,MC,NA,default,18,Yes,NA,Female,English,NA,11
1559,default,block1,jayden,ai,1,9308,hear,16,hear,C,NA,default,18,Yes,NA,Female,English,NA,12
1559,default,block1,jon,ai,0.94,6875,announce,17,announce,C,NA,default,18,Yes,NA,Female,English,NA,13
1559,default,block1,mia,ai,0,7228,be_right,18,be_right,C,NA,default,18,Yes,NA,Female,English,NA,14
1559,default,block1,jackson,ai,0.85,8408,discover,19,discover,C,NA,default,18,Yes,NA,Female,English,NA,15
1559,default,block1,ballet,ai,0,7973,MC,20,MC,MC,NA,default,18,Yes,NA,Female,English,NA,16
1559,default,block1,tony,ai,0,8841,confirm,21,confirm,C,NA,default,18,Yes,NA,Female,English,NA,17
1559,default,block1,emma,ai,0.42000000000000004,14111,reveal,22,reveal,C,NA,default,18,Yes,NA,Female,English,NA,18
1559,default,block1,garage,ai,0,16060,MC,23,MC,MC,NA,default,18,Yes,NA,Female,English,NA,19
1559,default,block1,zoe,ai,1,7434,be_annoyed,24,be_annoyed,C,NA,default,18,Yes,NA,Female,English,NA,20
1559,default,block1,owen,ai,1,8129,know,25,know,C,NA,default,18,Yes,NA,Female,English,NA,21
1559,default,block1,josie,ai,1,6889,see,26,see,C,NA,default,18,Yes,NA,Female,English,NA,22
1559,default,block1,charley,ai,0.83,14622,confess,27,confess,C,NA,default,18,Yes,NA,Female,English,NA,23
1559,default,block1,frank,ai,0.42000000000000004,13695,establish,28,establish,C,NA,default,18,Yes,NA,Female,English,NA,24
1559,default,block1,olivia,ai,0.54,6793,suggest,29,suggest,C,NA,default,18,Yes,NA,Female,English,NA,25
1559,default,block1,grace,ai,1,11379,pretend,30,pretend,C,NA,default,18,Yes,NA,Female,English,NA,26
1559,default,block2,charley,projective,0.37,15801,confess,32,confess,C,NA,default,18,Yes,NA,Female,English,NA,27
1559,default,block2,mary,projective,0.09,12358,admit,33,admit,C,NA,default,18,Yes,NA,Female,English,NA,28
1559,default,block2,jayden,projective,1,7931,hear,34,hear,C,NA,default,18,Yes,NA,Female,English,NA,29
1559,default,block2,hat,projective,0.61,6304,MC,35,MC,MC,NA,default,18,Yes,NA,Female,English,NA,30
1559,default,block2,mia,projective,0.57,6955,be_right,36,be_right,C,NA,default,18,Yes,NA,Female,English,NA,31
1559,default,block2,olivia,projective,0.34,6842,suggest,37,suggest,C,NA,default,18,Yes,NA,Female,English,NA,32
1559,default,block2,grace,projective,0,13334,pretend,38,pretend,C,NA,default,18,Yes,NA,Female,English,NA,33
1559,default,block2,tony,projective,0.45,9114,confirm,39,confirm,C,NA,default,18,Yes,NA,Female,English,NA,34
1559,default,block2,zoe,projective,0.99,7852,be_annoyed,40,be_annoyed,C,NA,default,18,Yes,NA,Female,English,NA,35
1559,default,block2,frank,projective,1,9318,establish,41,establish,C,NA,default,18,Yes,NA,Female,English,NA,36
1559,default,block2,garage,projective,0.62,7054,MC,42,MC,MC,NA,default,18,Yes,NA,Female,English,NA,37
1559,default,block2,jon,projective,0.82,9244,announce,43,announce,C,NA,default,18,Yes,NA,Female,English,NA,38
1559,default,block2,muffins,projective,0.54,8513,MC,44,MC,MC,NA,default,18,Yes,NA,Female,English,NA,39
1559,default,block2,kids,projective,0.52,9257,MC,45,MC,MC,NA,default,18,Yes,NA,Female,English,NA,40
1559,default,block2,jackson,projective,1,6340,discover,46,discover,C,NA,default,18,Yes,NA,Female,English,NA,41
1559,default,block2,julian,projective,1,9090,demonstrate,47,demonstrate,C,NA,default,18,Yes,NA,Female,English,NA,42
1559,default,block2,danny,projective,0.35,7811,say,48,say,C,NA,default,18,Yes,NA,Female,English,NA,43
1559,default,block2,owen,projective,1,5779,know,49,know,C,NA,default,18,Yes,NA,Female,English,NA,44
1559,default,block2,emily,projective,0.72,10686,prove,50,prove,C,NA,default,18,Yes,NA,Female,English,NA,45
1559,default,block2,emma,projective,1,7009,reveal,51,reveal,C,NA,default,18,Yes,NA,Female,English,NA,46
1559,default,block2,sophia,projective,1,4619,inform,52,inform,C,NA,default,18,Yes,NA,Female,English,NA,47
1559,default,block2,josie,projective,1,8164,see,53,see,C,NA,default,18,Yes,NA,Female,English,NA,48
1559,default,block2,pizza,projective,0.11,4848,MC,54,MC,MC,NA,default,18,Yes,NA,Female,English,NA,49
1559,default,block2,josh,projective,1,9474,acknowledge,55,acknowledge,C,NA,default,18,Yes,NA,Female,English,NA,50
1559,default,block2,isabella,projective,0.5,9299,think,56,think,C,NA,default,18,Yes,NA,Female,English,NA,51
1559,default,block2,ballet,projective,0.5,8423,MC,57,MC,MC,NA,default,18,Yes,NA,Female,English,NA,52
1483,default,block1,pizza,ai,0,13732,MC,5,MC,MC,NA,default,20,Yes,NA,Female,English,NA,1
1483,default,block1,jackson,ai,0,7663,establish,6,establish,C,NA,default,20,Yes,NA,Female,English,NA,2
1483,default,block1,olivia,ai,0.020000000000000018,6320,acknowledge,7,acknowledge,C,NA,default,20,Yes,NA,Female,English,NA,3
1483,default,block1,zoe,ai,0.030000000000000027,9241,suggest,8,suggest,C,NA,default,20,Yes,NA,Female,English,NA,4
1483,default,block1,jon,ai,0.010000000000000009,5491,demonstrate,9,demonstrate,C,NA,default,20,Yes,NA,Female,English,NA,5
1483,default,block1,josie,ai,1,8736,know,10,know,C,NA,default,20,Yes,NA,Female,English,NA,6
1483,default,block1,emma,ai,0.99,6568,confess,11,confess,C,NA,default,20,Yes,NA,Female,English,NA,7
1483,default,block1,muffins,ai,0.010000000000000009,8607,MC,12,MC,MC,NA,default,20,Yes,NA,Female,English,NA,8
1483,default,block1,hat,ai,0.010000000000000009,4096,MC,13,MC,MC,NA,default,20,Yes,NA,Female,English,NA,9
1483,default,block1,frank,ai,0.020000000000000018,7052,say,14,say,C,NA,default,20,Yes,NA,Female,English,NA,10
1483,default,block1,isabella,ai,0.010000000000000009,7730,announce,15,announce,C,NA,default,20,Yes,NA,Female,English,NA,11
1483,default,block1,kids,ai,0.020000000000000018,6290,MC,16,MC,MC,NA,default,20,Yes,NA,Female,English,NA,12
1483,default,block1,charley,ai,0.97,4237,see,17,see,C,NA,default,20,Yes,NA,Female,English,NA,13
1483,default,block1,mary,ai,0.99,5318,pretend,18,pretend,C,NA,default,20,Yes,NA,Female,English,NA,14
1483,default,block1,mia,ai,0.98,7389,inform,19,inform,C,NA,default,20,Yes,NA,Female,English,NA,15
1483,default,block1,jayden,ai,0.010000000000000009,21325,reveal,20,reveal,C,NA,default,20,Yes,NA,Female,English,NA,16
1483,default,block1,grace,ai,0.010000000000000009,5463,hear,21,hear,C,NA,default,20,Yes,NA,Female,English,NA,17
1483,default,block1,sophia,ai,0.020000000000000018,4164,be_right,22,be_right,C,NA,default,20,Yes,NA,Female,English,NA,18
1483,default,block1,emily,ai,0.98,16453,discover,23,discover,C,NA,default,20,Yes,NA,Female,English,NA,19
1483,default,block1,danny,ai,0.030000000000000027,4462,admit,24,admit,C,NA,default,20,Yes,NA,Female,English,NA,20
1483,default,block1,julian,ai,1,4348,think,25,think,C,NA,default,20,Yes,NA,Female,English,NA,21
1483,default,block1,owen,ai,0.010000000000000009,6522,confirm,26,confirm,C,NA,default,20,Yes,NA,Female,English,NA,22
1483,default,block1,garage,ai,0.010000000000000009,4647,MC,27,MC,MC,NA,default,20,Yes,NA,Female,English,NA,23
1483,default,block1,tony,ai,1,4439,be_annoyed,28,be_annoyed,C,NA,default,20,Yes,NA,Female,English,NA,24
1483,default,block1,ballet,ai,0.030000000000000027,4269,MC,29,MC,MC,NA,default,20,Yes,NA,Female,English,NA,25
1483,default,block1,josh,ai,0.98,4661,prove,30,prove,C,NA,default,20,Yes,NA,Female,English,NA,26
1483,default,block2,tony,projective,0.98,7770,be_annoyed,32,be_annoyed,C,NA,default,20,Yes,NA,Female,English,NA,27
1483,default,block2,charley,projective,0.98,4503,see,33,see,C,NA,default,20,Yes,NA,Female,English,NA,28
1483,default,block2,sophia,projective,0,4302,be_right,34,be_right,C,NA,default,20,Yes,NA,Female,English,NA,29
1483,default,block2,jackson,projective,0,3367,establish,35,establish,C,NA,default,20,Yes,NA,Female,English,NA,30
1483,default,block2,hat,projective,0.02,5028,MC,36,MC,MC,NA,default,20,Yes,NA,Female,English,NA,31
1483,default,block2,mia,projective,0.96,4806,inform,37,inform,C,NA,default,20,Yes,NA,Female,English,NA,32
1483,default,block2,isabella,projective,0.99,12652,announce,38,announce,C,NA,default,20,Yes,NA,Female,English,NA,33
1483,default,block2,julian,projective,0.02,10346,think,39,think,C,NA,default,20,Yes,NA,Female,English,NA,34
1483,default,block2,mary,projective,0.02,9710,pretend,40,pretend,C,NA,default,20,Yes,NA,Female,English,NA,35
1483,default,block2,emily,projective,0.98,5582,discover,41,discover,C,NA,default,20,Yes,NA,Female,English,NA,36
1483,default,block2,grace,projective,0.99,5365,hear,42,hear,C,NA,default,20,Yes,NA,Female,English,NA,37
1483,default,block2,jayden,projective,0.02,5681,reveal,43,reveal,C,NA,default,20,Yes,NA,Female,English,NA,38
1483,default,block2,muffins,projective,0.03,5015,MC,44,MC,MC,NA,default,20,Yes,NA,Female,English,NA,39
1483,default,block2,zoe,projective,0.02,7635,suggest,45,suggest,C,NA,default,20,Yes,NA,Female,English,NA,40
1483,default,block2,danny,projective,0.01,20851,admit,46,admit,C,NA,default,20,Yes,NA,Female,English,NA,41
1483,default,block2,josh,projective,0.02,11872,prove,47,prove,C,NA,default,20,Yes,NA,Female,English,NA,42
1483,default,block2,emma,projective,0.01,9230,confess,48,confess,C,NA,default,20,Yes,NA,Female,English,NA,43
1483,default,block2,pizza,projective,0,4788,MC,49,MC,MC,NA,default,20,Yes,NA,Female,English,NA,44
1483,default,block2,josie,projective,0.98,7706,know,50,know,C,NA,default,20,Yes,NA,Female,English,NA,45
1483,default,block2,garage,projective,0.01,4434,MC,51,MC,MC,NA,default,20,Yes,NA,Female,English,NA,46
1483,default,block2,ballet,projective,0.02,3783,MC,52,MC,MC,NA,default,20,Yes,NA,Female,English,NA,47
1483,default,block2,kids,projective,0.01,4370,MC,53,MC,MC,NA,default,20,Yes,NA,Female,English,NA,48
1483,default,block2,jon,projective,0.98,5798,demonstrate,54,demonstrate,C,NA,default,20,Yes,NA,Female,English,NA,49
1483,default,block2,owen,projective,0.01,31290,confirm,55,confirm,C,NA,default,20,Yes,NA,Female,English,NA,50
1483,default,block2,olivia,projective,0.98,4618,acknowledge,56,acknowledge,C,NA,default,20,Yes,NA,Female,English,NA,51
1483,default,block2,frank,projective,0.01,3190,say,57,say,C,NA,default,20,Yes,NA,Female,English,NA,52
1708,default,block1,owen,ai,0,18639,establish,5,establish,C,NA,default,23,Yes,NA,Female,english,NA,1
1708,default,block1,mary,ai,0.010000000000000009,5941,confirm,6,confirm,C,NA,default,23,Yes,NA,Female,english,NA,2
1708,default,block1,sophia,ai,0.88,8618,know,7,know,C,NA,default,23,Yes,NA,Female,english,NA,3
1708,default,block1,muffins,ai,0,11391,MC,8,MC,MC,NA,default,23,Yes,NA,Female,english,NA,4
1708,default,block1,isabella,ai,0.98,5819,see,9,see,C,NA,default,23,Yes,NA,Female,english,NA,5
1708,default,block1,danny,ai,0.8200000000000001,9628,confess,10,confess,C,NA,default,23,Yes,NA,Female,english,NA,6
1708,default,block1,olivia,ai,0.96,5438,hear,11,hear,C,NA,default,23,Yes,NA,Female,english,NA,7
1708,default,block1,jayden,ai,1,7492,be_annoyed,12,be_annoyed,C,NA,default,23,Yes,NA,Female,english,NA,8
1708,default,block1,jackson,ai,0.92,4455,think,13,think,C,NA,default,23,Yes,NA,Female,english,NA,9
1708,default,block1,kids,ai,0,6518,MC,14,MC,MC,NA,default,23,Yes,NA,Female,english,NA,10
1708,default,block1,josh,ai,0.88,8112,suggest,15,suggest,C,NA,default,23,Yes,NA,Female,english,NA,11
1708,default,block1,julian,ai,0.8,4993,acknowledge,16,acknowledge,C,NA,default,23,Yes,NA,Female,english,NA,12
1708,default,block1,emily,ai,0.94,5211,discover,17,discover,C,NA,default,23,Yes,NA,Female,english,NA,13
1708,default,block1,ballet,ai,0.010000000000000009,4025,MC,18,MC,MC,NA,default,23,Yes,NA,Female,english,NA,14
1708,default,block1,grace,ai,0.020000000000000018,5695,be_right,19,be_right,C,NA,default,23,Yes,NA,Female,english,NA,15
1708,default,block1,emma,ai,0.89,5015,announce,20,announce,C,NA,default,23,Yes,NA,Female,english,NA,16
1708,default,block1,mia,ai,0.88,9590,inform,21,inform,C,NA,default,23,Yes,NA,Female,english,NA,17
1708,default,block1,charley,ai,0.92,7452,demonstrate,22,demonstrate,C,NA,default,23,Yes,NA,Female,english,NA,18
1708,default,block1,hat,ai,0.020000000000000018,4183,MC,23,MC,MC,NA,default,23,Yes,NA,Female,english,NA,19
1708,default,block1,garage,ai,0.030000000000000027,4149,MC,24,MC,MC,NA,default,23,Yes,NA,Female,english,NA,20
1708,default,block1,jon,ai,0.87,4032,prove,25,prove,C,NA,default,23,Yes,NA,Female,english,NA,21
1708,default,block1,josie,ai,0.92,7035,admit,26,admit,C,NA,default,23,Yes,NA,Female,english,NA,22
1708,default,block1,tony,ai,0.42000000000000004,10868,pretend,27,pretend,C,NA,default,23,Yes,NA,Female,english,NA,23
1708,default,block1,frank,ai,0.89,5998,say,28,say,C,NA,default,23,Yes,NA,Female,english,NA,24
1708,default,block1,zoe,ai,0.73,4574,reveal,29,reveal,C,NA,default,23,Yes,NA,Female,english,NA,25
1708,default,block1,pizza,ai,0.030000000000000027,4510,MC,30,MC,MC,NA,default,23,Yes,NA,Female,english,NA,26
1708,default,block2,mary,projective,0,6340,confirm,32,confirm,C,NA,default,23,Yes,NA,Female,english,NA,27
1708,default,block2,jon,projective,0.01,4932,prove,33,prove,C,NA,default,23,Yes,NA,Female,english,NA,28
1708,default,block2,owen,projective,0.02,6774,establish,34,establish,C,NA,default,23,Yes,NA,Female,english,NA,29
1708,default,block2,hat,projective,0,6577,MC,35,MC,MC,NA,default,23,Yes,NA,Female,english,NA,30
1708,default,block2,ballet,projective,0.2,7877,MC,36,MC,MC,NA,default,23,Yes,NA,Female,english,NA,31
1708,default,block2,zoe,projective,0.88,6550,reveal,37,reveal,C,NA,default,23,Yes,NA,Female,english,NA,32
1708,default,block2,josh,projective,0.12,8638,suggest,38,suggest,C,NA,default,23,Yes,NA,Female,english,NA,33
1708,default,block2,danny,projective,1,6348,confess,39,confess,C,NA,default,23,Yes,NA,Female,english,NA,34
1708,default,block2,emma,projective,0.99,5182,announce,40,announce,C,NA,default,23,Yes,NA,Female,english,NA,35
1708,default,block2,charley,projective,0.49,5596,demonstrate,41,demonstrate,C,NA,default,23,Yes,NA,Female,english,NA,36
1708,default,block2,frank,projective,0.01,5989,say,42,say,C,NA,default,23,Yes,NA,Female,english,NA,37
1708,default,block2,tony,projective,0.06,10901,pretend,43,pretend,C,NA,default,23,Yes,NA,Female,english,NA,38
1708,default,block2,sophia,projective,1,5957,know,44,know,C,NA,default,23,Yes,NA,Female,english,NA,39
1708,default,block2,isabella,projective,0.97,4731,see,45,see,C,NA,default,23,Yes,NA,Female,english,NA,40
1708,default,block2,emily,projective,0.99,4044,discover,46,discover,C,NA,default,23,Yes,NA,Female,english,NA,41
1708,default,block2,olivia,projective,0.99,3231,hear,47,hear,C,NA,default,23,Yes,NA,Female,english,NA,42
1708,default,block2,jayden,projective,1,4394,be_annoyed,48,be_annoyed,C,NA,default,23,Yes,NA,Female,english,NA,43
1708,default,block2,garage,projective,0.01,4325,MC,49,MC,MC,NA,default,23,Yes,NA,Female,english,NA,44
1708,default,block2,pizza,projective,0.01,3579,MC,50,MC,MC,NA,default,23,Yes,NA,Female,english,NA,45
1708,default,block2,jackson,projective,0.21,5381,think,51,think,C,NA,default,23,Yes,NA,Female,english,NA,46
1708,default,block2,grace,projective,0.03,4068,be_right,52,be_right,C,NA,default,23,Yes,NA,Female,english,NA,47
1708,default,block2,mia,projective,0.97,6454,inform,53,inform,C,NA,default,23,Yes,NA,Female,english,NA,48
1708,default,block2,julian,projective,0.98,4957,acknowledge,54,acknowledge,C,NA,default,23,Yes,NA,Female,english,NA,49
1708,default,block2,muffins,projective,0.01,3852,MC,55,MC,MC,NA,default,23,Yes,NA,Female,english,NA,50
1708,default,block2,kids,projective,0,7612,MC,56,MC,MC,NA,default,23,Yes,NA,Female,english,NA,51
1708,default,block2,josie,projective,0.98,7330,admit,57,admit,C,NA,default,23,Yes,NA,Female,english,NA,52
1580,default,block1,emily,ai,0.5,16669,say,5,say,C,NA,default,38,Yes,NA,Male,english,NA,1
1580,default,block1,owen,ai,0.050000000000000044,6727,confirm,6,confirm,C,NA,default,38,Yes,NA,Male,english,NA,2
1580,default,block1,olivia,ai,0.6599999999999999,8361,know,7,know,C,NA,default,38,Yes,NA,Male,english,NA,3
1580,default,block1,julian,ai,0.020000000000000018,4271,be_right,8,be_right,C,NA,default,38,Yes,NA,Male,english,NA,4
1580,default,block1,pizza,ai,0.15000000000000002,8177,MC,9,MC,MC,NA,default,38,Yes,NA,Male,english,NA,5
1580,default,block1,isabella,ai,0.47,7430,see,10,see,C,NA,default,38,Yes,NA,Male,english,NA,6
1580,default,block1,jon,ai,0.6699999999999999,4910,hear,11,hear,C,NA,default,38,Yes,NA,Male,english,NA,7
1580,default,block1,emma,ai,0.65,5260,establish,12,establish,C,NA,default,38,Yes,NA,Male,english,NA,8
1580,default,block1,ballet,ai,0.07999999999999996,7107,MC,13,MC,MC,NA,default,38,Yes,NA,Male,english,NA,9
1580,default,block1,mia,ai,0.6799999999999999,5019,discover,14,discover,C,NA,default,38,Yes,NA,Male,english,NA,10
1580,default,block1,mary,ai,0.76,4205,acknowledge,15,acknowledge,C,NA,default,38,Yes,NA,Male,english,NA,11
1580,default,block1,muffins,ai,0.010000000000000009,6332,MC,16,MC,MC,NA,default,38,Yes,NA,Male,english,NA,12
1580,default,block1,kids,ai,0.020000000000000018,5916,MC,17,MC,MC,NA,default,38,Yes,NA,Male,english,NA,13
1580,default,block1,josie,ai,0.7,6448,confess,18,confess,C,NA,default,38,Yes,NA,Male,english,NA,14
1580,default,block1,danny,ai,0.79,3438,prove,19,prove,C,NA,default,38,Yes,NA,Male,english,NA,15
1580,default,block1,charley,ai,0.64,4186,demonstrate,20,demonstrate,C,NA,default,38,Yes,NA,Male,english,NA,16
1580,default,block1,josh,ai,0.6,8239,inform,21,inform,C,NA,default,38,Yes,NA,Male,english,NA,17
1580,default,block1,jayden,ai,0.75,3283,reveal,22,reveal,C,NA,default,38,Yes,NA,Male,english,NA,18
1580,default,block1,grace,ai,0.79,4299,admit,23,admit,C,NA,default,38,Yes,NA,Male,english,NA,19
1580,default,block1,zoe,ai,0.61,4274,suggest,24,suggest,C,NA,default,38,Yes,NA,Male,english,NA,20
1580,default,block1,frank,ai,0.010000000000000009,2799,think,25,think,C,NA,default,38,Yes,NA,Male,english,NA,21
1580,default,block1,tony,ai,0.73,4985,announce,26,announce,C,NA,default,38,Yes,NA,Male,english,NA,22
1580,default,block1,jackson,ai,0.76,4628,pretend,27,pretend,C,NA,default,38,Yes,NA,Male,english,NA,23
1580,default,block1,sophia,ai,0.78,2799,be_annoyed,28,be_annoyed,C,NA,default,38,Yes,NA,Male,english,NA,24
1580,default,block1,garage,ai,0.010000000000000009,6106,MC,29,MC,MC,NA,default,38,Yes,NA,Male,english,NA,25
1580,default,block1,hat,ai,0,5791,MC,30,MC,MC,NA,default,38,Yes,NA,Male,english,NA,26
1580,default,block2,owen,projective,0.04,12146,confirm,32,confirm,C,NA,default,38,Yes,NA,Male,english,NA,27
1580,default,block2,kids,projective,0.15,15358,MC,33,MC,MC,NA,default,38,Yes,NA,Male,english,NA,28
1580,default,block2,emily,projective,0.42,7314,say,34,say,C,NA,default,38,Yes,NA,Male,english,NA,29
1580,default,block2,tony,projective,0.23,6232,announce,35,announce,C,NA,default,38,Yes,NA,Male,english,NA,30
1580,default,block2,julian,projective,0.86,3441,be_right,36,be_right,C,NA,default,38,Yes,NA,Male,english,NA,31
1580,default,block2,frank,projective,0.86,3478,think,37,think,C,NA,default,38,Yes,NA,Male,english,NA,32
1580,default,block2,jon,projective,0.71,3673,hear,38,hear,C,NA,default,38,Yes,NA,Male,english,NA,33
1580,default,block2,zoe,projective,0.2,2435,suggest,39,suggest,C,NA,default,38,Yes,NA,Male,english,NA,34
1580,default,block2,olivia,projective,0.97,18535,know,40,know,C,NA,default,38,Yes,NA,Male,english,NA,35
1580,default,block2,emma,projective,0.16,4614,establish,41,establish,C,NA,default,38,Yes,NA,Male,english,NA,36
1580,default,block2,isabella,projective,0.98,3777,see,42,see,C,NA,default,38,Yes,NA,Male,english,NA,37
1580,default,block2,mary,projective,0.96,3945,acknowledge,43,acknowledge,C,NA,default,38,Yes,NA,Male,english,NA,38
1580,default,block2,charley,projective,0.31,5173,demonstrate,44,demonstrate,C,NA,default,38,Yes,NA,Male,english,NA,39
1580,default,block2,muffins,projective,0.11,5418,MC,45,MC,MC,NA,default,38,Yes,NA,Male,english,NA,40
1580,default,block2,josh,projective,0.96,6126,inform,46,inform,C,NA,default,38,Yes,NA,Male,english,NA,41
1580,default,block2,mia,projective,0.97,4425,discover,47,discover,C,NA,default,38,Yes,NA,Male,english,NA,42
1580,default,block2,ballet,projective,0.2,4924,MC,48,MC,MC,NA,default,38,Yes,NA,Male,english,NA,43
1580,default,block2,josie,projective,0.5,4126,confess,49,confess,C,NA,default,38,Yes,NA,Male,english,NA,44
1580,default,block2,garage,projective,0.08,6146,MC,50,MC,MC,NA,default,38,Yes,NA,Male,english,NA,45
1580,default,block2,pizza,projective,0.08,2964,MC,51,MC,MC,NA,default,38,Yes,NA,Male,english,NA,46
1580,default,block2,sophia,projective,0.98,3422,be_annoyed,52,be_annoyed,C,NA,default,38,Yes,NA,Male,english,NA,47
1580,default,block2,hat,projective,0.12,4423,MC,53,MC,MC,NA,default,38,Yes,NA,Male,english,NA,48
1580,default,block2,jayden,projective,0.57,4299,reveal,54,reveal,C,NA,default,38,Yes,NA,Male,english,NA,49
1580,default,block2,jackson,projective,0.18,3977,pretend,55,pretend,C,NA,default,38,Yes,NA,Male,english,NA,50
1580,default,block2,danny,projective,0.96,3319,prove,56,prove,C,NA,default,38,Yes,NA,Male,english,NA,51
1580,default,block2,grace,projective,0.99,3679,admit,57,admit,C,NA,default,38,Yes,NA,Male,english,NA,52
1720,default,block1,hat,projective,0.02,36631,MC,5,MC,MC,NA,default,23,Yes,I felt iffy about some statements in the first half of the study.,Female,English,NA,1
1720,default,block1,ballet,projective,0.07,17109,MC,6,MC,MC,NA,default,23,Yes,I felt iffy about some statements in the first half of the study.,Female,English,NA,2
1720,default,block1,olivia,projective,0.13,35200,pretend,7,pretend,C,NA,default,23,Yes,I felt iffy about some statements in the first half of the study.,Female,English,NA,3
1720,default,block1,frank,projective,0.81,37531,suggest,8,suggest,C,NA,default,23,Yes,I felt iffy about some statements in the first half of the study.,Female,English,NA,4
1720,default,block1,emma,projective,0.97,10015,be_annoyed,9,be_annoyed,C,NA,default,23,Yes,I felt iffy about some statements in the first half of the study.,Female,English,NA,5
1720,default,block1,charley,projective,1,21481,acknowledge,10,acknowledge,C,NA,default,23,Yes,I felt iffy about some statements in the first half of the study.,Female,English,NA,6
1720,default,block1,garage,projective,0.06,16617,MC,11,MC,MC,NA,default,23,Yes,I felt iffy about some statements in the first half of the study.,Female,English,NA,7
1720,default,block1,jayden,projective,0.99,28254,reveal,12,reveal,C,NA,default,23,Yes,I felt iffy about some statements in the first half of the study.,Female,English,NA,8
1720,default,block1,kids,projective,0.05,27473,MC,13,MC,MC,NA,default,23,Yes,I felt iffy about some statements in the first half of the study.,Female,English,NA,9
1720,default,block1,grace,projective,0.08,37994,think,14,think,C,NA,default,23,Yes,I felt iffy about some statements in the first half of the study.,Female,English,NA,10
1720,default,block1,josh,projective,0.15,21322,establish,15,establish,C,NA,default,23,Yes,I felt iffy about some statements in the first half of the study.,Female,English,NA,11
1720,default,block1,pizza,projective,0.06,20429,MC,16,MC,MC,NA,default,23,Yes,I felt iffy about some statements in the first half of the study.,Female,English,NA,12
1720,default,block1,muffins,projective,0.04,18799,MC,17,MC,MC,NA,default,23,Yes,I felt iffy about some statements in the first half of the study.,Female,English,NA,13
1720,default,block1,josie,projective,0.94,40177,see,18,see,C,NA,default,23,Yes,I felt iffy about some statements in the first half of the study.,Female,English,NA,14
1720,default,block1,danny,projective,0.95,24854,know,19,know,C,NA,default,23,Yes,I felt iffy about some statements in the first half of the study.,Female,English,NA,15
1720,default,block1,julian,projective,0.99,19313,inform,20,inform,C,NA,default,23,Yes,I felt iffy about some statements in the first half of the study.,Female,English,NA,16
1720,default,block1,sophia,projective,0.25,27636,be_right,21,be_right,C,NA,default,23,Yes,I felt iffy about some statements in the first half of the study.,Female,English,NA,17
1720,default,block1,jackson,projective,0.18,39584,confirm,22,confirm,C,NA,default,23,Yes,I felt iffy about some statements in the first half of the study.,Female,English,NA,18
1720,default,block1,mia,projective,0.58,29269,prove,23,prove,C,NA,default,23,Yes,I felt iffy about some statements in the first half of the study.,Female,English,NA,19
1720,default,block1,tony,projective,0.74,24886,confess,24,confess,C,NA,default,23,Yes,I felt iffy about some statements in the first half of the study.,Female,English,NA,20
1720,default,block1,owen,projective,0.89,10965,demonstrate,25,demonstrate,C,NA,default,23,Yes,I felt iffy about some statements in the first half of the study.,Female,English,NA,21
1720,default,block1,isabella,projective,0.26,27052,say,26,say,C,NA,default,23,Yes,I felt iffy about some statements in the first half of the study.,Female,English,NA,22
1720,default,block1,jon,projective,0.93,20768,announce,27,announce,C,NA,default,23,Yes,I felt iffy about some statements in the first half of the study.,Female,English,NA,23
1720,default,block1,mary,projective,0.9,11510,hear,28,hear,C,NA,default,23,Yes,I felt iffy about some statements in the first half of the study.,Female,English,NA,24
1720,default,block1,zoe,projective,0.99,10616,discover,29,discover,C,NA,default,23,Yes,I felt iffy about some statements in the first half of the study.,Female,English,NA,25
1720,default,block1,emily,projective,0.78,29042,admit,30,admit,C,NA,default,23,Yes,I felt iffy about some statements in the first half of the study.,Female,English,NA,26
1720,default,block2,jon,ai,0.91,10689,announce,32,announce,C,NA,default,23,Yes,I felt iffy about some statements in the first half of the study.,Female,English,NA,27
1720,default,block2,kids,ai,0,18893,MC,33,MC,MC,NA,default,23,Yes,I felt iffy about some statements in the first half of the study.,Female,English,NA,28
1720,default,block2,jayden,ai,0.85,8991,reveal,34,reveal,C,NA,default,23,Yes,I felt iffy about some statements in the first half of the study.,Female,English,NA,29
1720,default,block2,mia,ai,0.77,42720,prove,35,prove,C,NA,default,23,Yes,I felt iffy about some statements in the first half of the study.,Female,English,NA,30
1720,default,block2,charley,ai,0.96,45917,acknowledge,36,acknowledge,C,NA,default,23,Yes,I felt iffy about some statements in the first half of the study.,Female,English,NA,31
1720,default,block2,emily,ai,0.87,6880,admit,37,admit,C,NA,default,23,Yes,I felt iffy about some statements in the first half of the study.,Female,English,NA,32
1720,default,block2,mary,ai,0.81,23203,hear,38,hear,C,NA,default,23,Yes,I felt iffy about some statements in the first half of the study.,Female,English,NA,33
1720,default,block2,julian,ai,0.88,57266,inform,39,inform,C,NA,default,23,Yes,I felt iffy about some statements in the first half of the study.,Female,English,NA,34
1720,default,block2,isabella,ai,0.18999999999999995,28787,say,40,say,C,NA,default,23,Yes,I felt iffy about some statements in the first half of the study.,Female,English,NA,35
1720,default,block2,josie,ai,0.76,38380,see,41,see,C,NA,default,23,Yes,I felt iffy about some statements in the first half of the study.,Female,English,NA,36
1720,default,block2,garage,ai,0.030000000000000027,15104,MC,42,MC,MC,NA,default,23,Yes,I felt iffy about some statements in the first half of the study.,Female,English,NA,37
1720,default,block2,josh,ai,0.4,24506,establish,43,establish,C,NA,default,23,Yes,I felt iffy about some statements in the first half of the study.,Female,English,NA,38
1720,default,block2,owen,ai,0.62,90462,demonstrate,44,demonstrate,C,NA,default,23,Yes,I felt iffy about some statements in the first half of the study.,Female,English,NA,39
1720,default,block2,pizza,ai,0.050000000000000044,44766,MC,45,MC,MC,NA,default,23,Yes,I felt iffy about some statements in the first half of the study.,Female,English,NA,40
1720,default,block2,hat,ai,0.030000000000000027,9359,MC,46,MC,MC,NA,default,23,Yes,I felt iffy about some statements in the first half of the study.,Female,English,NA,41
1720,default,block2,jackson,ai,0.27,13214,confirm,47,confirm,C,NA,default,23,Yes,I felt iffy about some statements in the first half of the study.,Female,English,NA,42
1720,default,block2,danny,ai,0.71,11718,know,48,know,C,NA,default,23,Yes,I felt iffy about some statements in the first half of the study.,Female,English,NA,43
1720,default,block2,grace,ai,0.8200000000000001,18098,think,49,think,C,NA,default,23,Yes,I felt iffy about some statements in the first half of the study.,Female,English,NA,44
1720,default,block2,sophia,ai,0.06000000000000005,26338,be_right,50,be_right,C,NA,default,23,Yes,I felt iffy about some statements in the first half of the study.,Female,English,NA,45
1720,default,block2,zoe,ai,0.6799999999999999,27449,discover,51,discover,C,NA,default,23,Yes,I felt iffy about some statements in the first half of the study.,Female,English,NA,46
1720,default,block2,tony,ai,0.45999999999999996,12643,confess,52,confess,C,NA,default,23,Yes,I felt iffy about some statements in the first half of the study.,Female,English,NA,47
1720,default,block2,emma,ai,0.97,10262,be_annoyed,53,be_annoyed,C,NA,default,23,Yes,I felt iffy about some statements in the first half of the study.,Female,English,NA,48
1720,default,block2,muffins,ai,0.020000000000000018,16466,MC,54,MC,MC,NA,default,23,Yes,I felt iffy about some statements in the first half of the study.,Female,English,NA,49
1720,default,block2,frank,ai,0.92,10166,suggest,55,suggest,C,NA,default,23,Yes,I felt iffy about some statements in the first half of the study.,Female,English,NA,50
1720,default,block2,ballet,ai,0.020000000000000018,10252,MC,56,MC,MC,NA,default,23,Yes,I felt iffy about some statements in the first half of the study.,Female,English,NA,51
1720,default,block2,olivia,ai,0.78,12932,pretend,57,pretend,C,NA,default,23,Yes,I felt iffy about some statements in the first half of the study.,Female,English,NA,52
1661,default,block1,kids,projective,0,11632,MC,5,MC,MC,NA,default,22,Yes,NA,Female,English,NA,1
1661,default,block1,muffins,projective,0,7767,MC,6,MC,MC,NA,default,22,Yes,NA,Female,English,NA,2
1661,default,block1,emily,projective,1,10737,reveal,7,reveal,C,NA,default,22,Yes,NA,Female,English,NA,3
1661,default,block1,josh,projective,1,9552,acknowledge,8,acknowledge,C,NA,default,22,Yes,NA,Female,English,NA,4
1661,default,block1,jackson,projective,1,6576,establish,9,establish,C,NA,default,22,Yes,NA,Female,English,NA,5
1661,default,block1,mia,projective,1,5176,know,10,know,C,NA,default,22,Yes,NA,Female,English,NA,6
1661,default,block1,emma,projective,1,6952,admit,11,admit,C,NA,default,22,Yes,NA,Female,English,NA,7
1661,default,block1,sophia,projective,1,4328,confess,12,confess,C,NA,default,22,Yes,NA,Female,English,NA,8
1661,default,block1,hat,projective,0,7952,MC,13,MC,MC,NA,default,22,Yes,NA,Female,English,NA,9
1661,default,block1,danny,projective,1,6943,be_annoyed,14,be_annoyed,C,NA,default,22,Yes,NA,Female,English,NA,10
1661,default,block1,julian,projective,0.57,11529,suggest,15,suggest,C,NA,default,22,Yes,NA,Female,English,NA,11
1661,default,block1,frank,projective,0.24,7911,confirm,16,confirm,C,NA,default,22,Yes,NA,Female,English,NA,12
1661,default,block1,josie,projective,0.54,12417,announce,17,announce,C,NA,default,22,Yes,NA,Female,English,NA,13
1661,default,block1,pizza,projective,0,12192,MC,18,MC,MC,NA,default,22,Yes,NA,Female,English,NA,14
1661,default,block1,olivia,projective,0.4,8624,prove,19,prove,C,NA,default,22,Yes,NA,Female,English,NA,15
1661,default,block1,zoe,projective,0.61,6576,discover,20,discover,C,NA,default,22,Yes,NA,Female,English,NA,16
1661,default,block1,garage,projective,0,8520,MC,21,MC,MC,NA,default,22,Yes,NA,Female,English,NA,17
1661,default,block1,ballet,projective,0,7287,MC,22,MC,MC,NA,default,22,Yes,NA,Female,English,NA,18
1661,default,block1,owen,projective,1,6985,inform,23,inform,C,NA,default,22,Yes,NA,Female,English,NA,19
1661,default,block1,jon,projective,0.35,6288,pretend,24,pretend,C,NA,default,22,Yes,NA,Female,English,NA,20
1661,default,block1,isabella,projective,0.31,10056,think,25,think,C,NA,default,22,Yes,NA,Female,English,NA,21
1661,default,block1,mary,projective,0.11,7952,say,26,say,C,NA,default,22,Yes,NA,Female,English,NA,22
1661,default,block1,jayden,projective,0,5392,be_right,27,be_right,C,NA,default,22,Yes,NA,Female,English,NA,23
1661,default,block1,charley,projective,0.54,6728,hear,28,hear,C,NA,default,22,Yes,NA,Female,English,NA,24
1661,default,block1,tony,projective,1,8376,see,29,see,C,NA,default,22,Yes,NA,Female,English,NA,25
1661,default,block1,grace,projective,0.55,8856,demonstrate,30,demonstrate,C,NA,default,22,Yes,NA,Female,English,NA,26
1661,default,block2,muffins,ai,0,5287,MC,32,MC,MC,NA,default,22,Yes,NA,Female,English,NA,27
1661,default,block2,emma,ai,0.85,11000,admit,33,admit,C,NA,default,22,Yes,NA,Female,English,NA,28
1661,default,block2,grace,ai,0.74,8872,demonstrate,34,demonstrate,C,NA,default,22,Yes,NA,Female,English,NA,29
1661,default,block2,ballet,ai,0,4984,MC,35,MC,MC,NA,default,22,Yes,NA,Female,English,NA,30
1661,default,block2,mary,ai,0.86,6370,say,36,say,C,NA,default,22,Yes,NA,Female,English,NA,31
1661,default,block2,garage,ai,0,4934,MC,37,MC,MC,NA,default,22,Yes,NA,Female,English,NA,32
1661,default,block2,tony,ai,0.83,5904,see,38,see,C,NA,default,22,Yes,NA,Female,English,NA,33
1661,default,block2,mia,ai,0.83,4120,know,39,know,C,NA,default,22,Yes,NA,Female,English,NA,34
1661,default,block2,josh,ai,0.8200000000000001,5637,acknowledge,40,acknowledge,C,NA,default,22,Yes,NA,Female,English,NA,35
1661,default,block2,jon,ai,1,8896,pretend,41,pretend,C,NA,default,22,Yes,NA,Female,English,NA,36
1661,default,block2,charley,ai,1,9088,hear,42,hear,C,NA,default,22,Yes,NA,Female,English,NA,37
1661,default,block2,olivia,ai,0.83,4344,prove,43,prove,C,NA,default,22,Yes,NA,Female,English,NA,38
1661,default,block2,jackson,ai,0.6,5976,establish,44,establish,C,NA,default,22,Yes,NA,Female,English,NA,39
1661,default,block2,frank,ai,0.65,8992,confirm,45,confirm,C,NA,default,22,Yes,NA,Female,English,NA,40
1661,default,block2,owen,ai,0.5900000000000001,5231,inform,46,inform,C,NA,default,22,Yes,NA,Female,English,NA,41
1661,default,block2,hat,ai,0,4185,MC,47,MC,MC,NA,default,22,Yes,NA,Female,English,NA,42
1661,default,block2,julian,ai,1,9032,suggest,48,suggest,C,NA,default,22,Yes,NA,Female,English,NA,43
1661,default,block2,kids,ai,0,5555,MC,49,MC,MC,NA,default,22,Yes,NA,Female,English,NA,44
1661,default,block2,emily,ai,0.85,4128,reveal,50,reveal,C,NA,default,22,Yes,NA,Female,English,NA,45
1661,default,block2,zoe,ai,1,7280,discover,51,discover,C,NA,default,22,Yes,NA,Female,English,NA,46
1661,default,block2,pizza,ai,0,3568,MC,52,MC,MC,NA,default,22,Yes,NA,Female,English,NA,47
1661,default,block2,josie,ai,0.83,8064,announce,53,announce,C,NA,default,22,Yes,NA,Female,English,NA,48
1661,default,block2,jayden,ai,0,10496,be_right,54,be_right,C,NA,default,22,Yes,NA,Female,English,NA,49
1661,default,block2,sophia,ai,0.71,6648,confess,55,confess,C,NA,default,22,Yes,NA,Female,English,NA,50
1661,default,block2,danny,ai,0.89,6016,be_annoyed,56,be_annoyed,C,NA,default,22,Yes,NA,Female,English,NA,51
1661,default,block2,isabella,ai,0.8200000000000001,8104,think,57,think,C,NA,default,22,Yes,NA,Female,English,NA,52
1545,default,block1,emily,ai,0.97,13773,confess,5,confess,C,NA,default,21,Yes,NA,Female,english,NA,1
1545,default,block1,mia,ai,0.92,7709,suggest,6,suggest,C,NA,default,21,Yes,NA,Female,english,NA,2
1545,default,block1,charley,ai,0.99,7010,discover,7,discover,C,NA,default,21,Yes,NA,Female,english,NA,3
1545,default,block1,jayden,ai,0.94,6110,reveal,8,reveal,C,NA,default,21,Yes,NA,Female,english,NA,4
1545,default,block1,julian,ai,0.97,5233,demonstrate,9,demonstrate,C,NA,default,21,Yes,NA,Female,english,NA,5
1545,default,block1,zoe,ai,1,7270,acknowledge,10,acknowledge,C,NA,default,21,Yes,NA,Female,english,NA,6
1545,default,block1,pizza,ai,0.010000000000000009,10717,MC,11,MC,MC,NA,default,21,Yes,NA,Female,english,NA,7
1545,default,block1,jon,ai,1,5417,be_annoyed,12,be_annoyed,C,NA,default,21,Yes,NA,Female,english,NA,8
1545,default,block1,tony,ai,0.98,4829,announce,13,announce,C,NA,default,21,Yes,NA,Female,english,NA,9
1545,default,block1,garage,ai,0.040000000000000036,9633,MC,14,MC,MC,NA,default,21,Yes,NA,Female,english,NA,10
1545,default,block1,sophia,ai,0.98,8178,inform,15,inform,C,NA,default,21,Yes,NA,Female,english,NA,11
1545,default,block1,olivia,ai,0.050000000000000044,8606,be_right,16,be_right,C,NA,default,21,Yes,NA,Female,english,NA,12
1545,default,block1,owen,ai,0.99,6334,pretend,17,pretend,C,NA,default,21,Yes,NA,Female,english,NA,13
1545,default,block1,josie,ai,0.86,7890,think,18,think,C,NA,default,21,Yes,NA,Female,english,NA,14
1545,default,block1,hat,ai,0.030000000000000027,5870,MC,19,MC,MC,NA,default,21,Yes,NA,Female,english,NA,15
1545,default,block1,muffins,ai,0.020000000000000018,5931,MC,20,MC,MC,NA,default,21,Yes,NA,Female,english,NA,16
1545,default,block1,ballet,ai,0.040000000000000036,4270,MC,21,MC,MC,NA,default,21,Yes,NA,Female,english,NA,17
1545,default,block1,mary,ai,1,6754,know,22,know,C,NA,default,21,Yes,NA,Female,english,NA,18
1545,default,block1,isabella,ai,0.98,4699,admit,23,admit,C,NA,default,21,Yes,NA,Female,english,NA,19
1545,default,block1,emma,ai,0.99,5125,say,24,say,C,NA,default,21,Yes,NA,Female,english,NA,20
1545,default,block1,kids,ai,0.020000000000000018,5977,MC,25,MC,MC,NA,default,21,Yes,NA,Female,english,NA,21
1545,default,block1,danny,ai,0.81,10787,confirm,26,confirm,C,NA,default,21,Yes,NA,Female,english,NA,22
1545,default,block1,josh,ai,0.99,5091,hear,27,hear,C,NA,default,21,Yes,NA,Female,english,NA,23
1545,default,block1,grace,ai,0.77,6353,prove,28,prove,C,NA,default,21,Yes,NA,Female,english,NA,24
1545,default,block1,jackson,ai,0.97,6212,see,29,see,C,NA,default,21,Yes,NA,Female,english,NA,25
1545,default,block1,frank,ai,0.99,5317,establish,30,establish,C,NA,default,21,Yes,NA,Female,english,NA,26
1545,default,block2,grace,projective,0.03,12493,prove,32,prove,C,NA,default,21,Yes,NA,Female,english,NA,27
1545,default,block2,ballet,projective,0.02,8342,MC,33,MC,MC,NA,default,21,Yes,NA,Female,english,NA,28
1545,default,block2,tony,projective,0.45,16185,announce,34,announce,C,NA,default,21,Yes,NA,Female,english,NA,29
1545,default,block2,sophia,projective,0.87,6143,inform,35,inform,C,NA,default,21,Yes,NA,Female,english,NA,30
1545,default,block2,jackson,projective,0.81,4984,see,36,see,C,NA,default,21,Yes,NA,Female,english,NA,31
1545,default,block2,kids,projective,0.01,6125,MC,37,MC,MC,NA,default,21,Yes,NA,Female,english,NA,32
1545,default,block2,hat,projective,0.04,5482,MC,38,MC,MC,NA,default,21,Yes,NA,Female,english,NA,33
1545,default,block2,jayden,projective,0.45,7633,reveal,39,reveal,C,NA,default,21,Yes,NA,Female,english,NA,34
1545,default,block2,emma,projective,0.47,5992,say,40,say,C,NA,default,21,Yes,NA,Female,english,NA,35
1545,default,block2,danny,projective,0.16,5907,confirm,41,confirm,C,NA,default,21,Yes,NA,Female,english,NA,36
1545,default,block2,muffins,projective,0.2,5797,MC,42,MC,MC,NA,default,21,Yes,NA,Female,english,NA,37
1545,default,block2,josie,projective,0.01,30539,think,43,think,C,NA,default,21,Yes,NA,Female,english,NA,38
1545,default,block2,jon,projective,0.95,7144,be_annoyed,44,be_annoyed,C,NA,default,21,Yes,NA,Female,english,NA,39
1545,default,block2,julian,projective,0.79,7216,demonstrate,45,demonstrate,C,NA,default,21,Yes,NA,Female,english,NA,40
1545,default,block2,josh,projective,0.96,5571,hear,46,hear,C,NA,default,21,Yes,NA,Female,english,NA,41
1545,default,block2,frank,projective,0.73,6924,establish,47,establish,C,NA,default,21,Yes,NA,Female,english,NA,42
1545,default,block2,owen,projective,0.02,12024,pretend,48,pretend,C,NA,default,21,Yes,NA,Female,english,NA,43
1545,default,block2,zoe,projective,0.95,8982,acknowledge,49,acknowledge,C,NA,default,21,Yes,NA,Female,english,NA,44
1545,default,block2,olivia,projective,0.01,7312,be_right,50,be_right,C,NA,default,21,Yes,NA,Female,english,NA,45
1545,default,block2,mary,projective,0.99,6196,know,51,know,C,NA,default,21,Yes,NA,Female,english,NA,46
1545,default,block2,mia,projective,0.96,5372,suggest,52,suggest,C,NA,default,21,Yes,NA,Female,english,NA,47
1545,default,block2,pizza,projective,0.01,6847,MC,53,MC,MC,NA,default,21,Yes,NA,Female,english,NA,48
1545,default,block2,isabella,projective,0.07,14491,admit,54,admit,C,NA,default,21,Yes,NA,Female,english,NA,49
1545,default,block2,emily,projective,0.22,6587,confess,55,confess,C,NA,default,21,Yes,NA,Female,english,NA,50
1545,default,block2,charley,projective,0.8,5180,discover,56,discover,C,NA,default,21,Yes,NA,Female,english,NA,51
1545,default,block2,garage,projective,0.04,7668,MC,57,MC,MC,NA,default,21,Yes,NA,Female,english,NA,52
1657,default,block1,josh,projective,0.02,11033,see,5,see,C,NA,default,19,Yes,NA,Female,English,NA,1
1657,default,block1,sophia,projective,0.87,7905,confess,6,confess,C,NA,default,19,Yes,NA,Female,English,NA,2
1657,default,block1,mary,projective,0.98,4209,be_annoyed,7,be_annoyed,C,NA,default,19,Yes,NA,Female,English,NA,3
1657,default,block1,emily,projective,0.96,4273,say,8,say,C,NA,default,19,Yes,NA,Female,English,NA,4
1657,default,block1,danny,projective,0.76,3263,prove,9,prove,C,NA,default,19,Yes,NA,Female,English,NA,5
1657,default,block1,josie,projective,0.98,4057,discover,10,discover,C,NA,default,19,Yes,NA,Female,English,NA,6
1657,default,block1,garage,projective,0.05,5927,MC,11,MC,MC,NA,default,19,Yes,NA,Female,English,NA,7
1657,default,block1,emma,projective,0.08,5395,be_right,12,be_right,C,NA,default,19,Yes,NA,Female,English,NA,8
1657,default,block1,isabella,projective,0.97,5366,know,13,know,C,NA,default,19,Yes,NA,Female,English,NA,9
1657,default,block1,charley,projective,0.96,4778,acknowledge,14,acknowledge,C,NA,default,19,Yes,NA,Female,English,NA,10
1657,default,block1,kids,projective,0.02,4899,MC,15,MC,MC,NA,default,19,Yes,NA,Female,English,NA,11
1657,default,block1,owen,projective,0.78,5972,announce,16,announce,C,NA,default,19,Yes,NA,Female,English,NA,12
1657,default,block1,muffins,projective,0.07,4618,MC,17,MC,MC,NA,default,19,Yes,NA,Female,English,NA,13
1657,default,block1,julian,projective,0.08,5164,establish,18,establish,C,NA,default,19,Yes,NA,Female,English,NA,14
1657,default,block1,jayden,projective,0.02,7833,pretend,19,pretend,C,NA,default,19,Yes,NA,Female,English,NA,15
1657,default,block1,jackson,projective,0.94,4436,admit,20,admit,C,NA,default,19,Yes,NA,Female,English,NA,16
1657,default,block1,ballet,projective,0.02,5820,MC,21,MC,MC,NA,default,19,Yes,NA,Female,English,NA,17
1657,default,block1,mia,projective,0.07,5076,confirm,22,confirm,C,NA,default,19,Yes,NA,Female,English,NA,18
1657,default,block1,frank,projective,0.02,6680,demonstrate,23,demonstrate,C,NA,default,19,Yes,NA,Female,English,NA,19
1657,default,block1,jon,projective,0.97,3591,hear,24,hear,C,NA,default,19,Yes,NA,Female,English,NA,20
1657,default,block1,grace,projective,0.14,4875,suggest,25,suggest,C,NA,default,19,Yes,NA,Female,English,NA,21
1657,default,block1,zoe,projective,0.63,6213,think,26,think,C,NA,default,19,Yes,NA,Female,English,NA,22
1657,default,block1,tony,projective,0.98,3817,reveal,27,reveal,C,NA,default,19,Yes,NA,Female,English,NA,23
1657,default,block1,pizza,projective,0.49,1098,MC,28,MC,MC,NA,default,19,Yes,NA,Female,English,NA,24
1657,default,block1,olivia,projective,0.83,5061,inform,29,inform,C,NA,default,19,Yes,NA,Female,English,NA,25
1657,default,block1,hat,projective,0.06,5171,MC,30,MC,MC,NA,default,19,Yes,NA,Female,English,NA,26
1657,default,block2,jayden,ai,0.83,8353,pretend,32,pretend,C,NA,default,19,Yes,NA,Female,English,NA,27
1657,default,block2,kids,ai,0.030000000000000027,4427,MC,33,MC,MC,NA,default,19,Yes,NA,Female,English,NA,28
1657,default,block2,frank,ai,0.85,3022,demonstrate,34,demonstrate,C,NA,default,19,Yes,NA,Female,English,NA,29
1657,default,block2,isabella,ai,0.85,2982,know,35,know,C,NA,default,19,Yes,NA,Female,English,NA,30
1657,default,block2,jon,ai,0.86,3624,hear,36,hear,C,NA,default,19,Yes,NA,Female,English,NA,31
1657,default,block2,mia,ai,0.88,3127,confirm,37,confirm,C,NA,default,19,Yes,NA,Female,English,NA,32
1657,default,block2,sophia,ai,0.040000000000000036,5788,confess,38,confess,C,NA,default,19,Yes,NA,Female,English,NA,33
1657,default,block2,olivia,ai,0.95,5700,inform,39,inform,C,NA,default,19,Yes,NA,Female,English,NA,34
1657,default,block2,hat,ai,0.040000000000000036,2782,MC,40,MC,MC,NA,default,19,Yes,NA,Female,English,NA,35
1657,default,block2,emily,ai,0.030000000000000027,3119,say,41,say,C,NA,default,19,Yes,NA,Female,English,NA,36
1657,default,block2,josie,ai,0.89,2959,discover,42,discover,C,NA,default,19,Yes,NA,Female,English,NA,37
1657,default,block2,emma,ai,0.020000000000000018,3246,be_right,43,be_right,C,NA,default,19,Yes,NA,Female,English,NA,38
1657,default,block2,charley,ai,0.16000000000000003,4274,acknowledge,44,acknowledge,C,NA,default,19,Yes,NA,Female,English,NA,39
1657,default,block2,muffins,ai,0.010000000000000009,3198,MC,45,MC,MC,NA,default,19,Yes,NA,Female,English,NA,40
1657,default,block2,josh,ai,0.97,2862,see,46,see,C,NA,default,19,Yes,NA,Female,English,NA,41
1657,default,block2,danny,ai,0.040000000000000036,4297,prove,47,prove,C,NA,default,19,Yes,NA,Female,English,NA,42
1657,default,block2,garage,ai,0.030000000000000027,4281,MC,48,MC,MC,NA,default,19,Yes,NA,Female,English,NA,43
1657,default,block2,ballet,ai,0.010000000000000009,2388,MC,49,MC,MC,NA,default,19,Yes,NA,Female,English,NA,44
1657,default,block2,owen,ai,0.06999999999999995,4137,announce,50,announce,C,NA,default,19,Yes,NA,Female,English,NA,45
1657,default,block2,pizza,ai,0.06000000000000005,2500,MC,51,MC,MC,NA,default,19,Yes,NA,Female,English,NA,46
1657,default,block2,zoe,ai,0.9299999999999999,4121,think,52,think,C,NA,default,19,Yes,NA,Female,English,NA,47
1657,default,block2,jackson,ai,0.09999999999999998,2790,admit,53,admit,C,NA,default,19,Yes,NA,Female,English,NA,48
1657,default,block2,mary,ai,0.97,2565,be_annoyed,54,be_annoyed,C,NA,default,19,Yes,NA,Female,English,NA,49
1657,default,block2,julian,ai,0.6699999999999999,2870,establish,55,establish,C,NA,default,19,Yes,NA,Female,English,NA,50
1657,default,block2,grace,ai,0.98,3174,suggest,56,suggest,C,NA,default,19,Yes,NA,Female,English,NA,51
1657,default,block2,tony,ai,0.29000000000000004,3094,reveal,57,reveal,C,NA,default,19,Yes,NA,Female,English,NA,52
1553,default,block1,julian,projective,0.02,13419,establish,5,establish,C,NA,default,21,Yes,n/a,Female,english,NA,1
1553,default,block1,emma,projective,0,16421,confirm,6,confirm,C,NA,default,21,Yes,n/a,Female,english,NA,2
1553,default,block1,josie,projective,0.1,24325,demonstrate,7,demonstrate,C,NA,default,21,Yes,n/a,Female,english,NA,3
1553,default,block1,ballet,projective,0.15,44933,MC,8,MC,MC,NA,default,21,Yes,n/a,Female,english,NA,4
1553,default,block1,jayden,projective,0.61,19219,discover,9,discover,C,NA,default,21,Yes,n/a,Female,english,NA,5
1553,default,block1,kids,projective,0.06,82746,MC,10,MC,MC,NA,default,21,Yes,n/a,Female,english,NA,6
1553,default,block1,jackson,projective,0.82,6980,know,11,know,C,NA,default,21,Yes,n/a,Female,english,NA,7
1553,default,block1,danny,projective,0.04,5553,say,12,say,C,NA,default,21,Yes,n/a,Female,english,NA,8
1553,default,block1,mia,projective,0.17,78166,admit,13,admit,C,NA,default,21,Yes,n/a,Female,english,NA,9
1553,default,block1,owen,projective,0.16,10962,pretend,14,pretend,C,NA,default,21,Yes,n/a,Female,english,NA,10
1553,default,block1,isabella,projective,0.13,65487,prove,15,prove,C,NA,default,21,Yes,n/a,Female,english,NA,11
1553,default,block1,charley,projective,0.11,39098,be_right,16,be_right,C,NA,default,21,Yes,n/a,Female,english,NA,12
1553,default,block1,grace,projective,0.14,38456,suggest,17,suggest,C,NA,default,21,Yes,n/a,Female,english,NA,13
1553,default,block1,jon,projective,0.98,3815,see,18,see,C,NA,default,21,Yes,n/a,Female,english,NA,14
1553,default,block1,muffins,projective,0.05,81324,MC,19,MC,MC,NA,default,21,Yes,n/a,Female,english,NA,15
1553,default,block1,tony,projective,0.92,57421,inform,20,inform,C,NA,default,21,Yes,n/a,Female,english,NA,16
1553,default,block1,emily,projective,0.91,6106,reveal,21,reveal,C,NA,default,21,Yes,n/a,Female,english,NA,17
1553,default,block1,pizza,projective,0.05,13568,MC,22,MC,MC,NA,default,21,Yes,n/a,Female,english,NA,18
1553,default,block1,frank,projective,0.94,6685,be_annoyed,23,be_annoyed,C,NA,default,21,Yes,n/a,Female,english,NA,19
1553,default,block1,olivia,projective,0.64,5501,think,24,think,C,NA,default,21,Yes,n/a,Female,english,NA,20
1553,default,block1,garage,projective,0.08,20647,MC,25,MC,MC,NA,default,21,Yes,n/a,Female,english,NA,21
1553,default,block1,mary,projective,0.94,18078,hear,26,hear,C,NA,default,21,Yes,n/a,Female,english,NA,22
1553,default,block1,sophia,projective,0.97,29930,acknowledge,27,acknowledge,C,NA,default,21,Yes,n/a,Female,english,NA,23
1553,default,block1,zoe,projective,0.97,11348,confess,28,confess,C,NA,default,21,Yes,n/a,Female,english,NA,24
1553,default,block1,josh,projective,0.97,3158,announce,29,announce,C,NA,default,21,Yes,n/a,Female,english,NA,25
1553,default,block1,hat,projective,0.19,66528,MC,30,MC,MC,NA,default,21,Yes,n/a,Female,english,NA,26
1553,default,block2,olivia,ai,0.96,5344,think,32,think,C,NA,default,21,Yes,n/a,Female,english,NA,27
1553,default,block2,jon,ai,0.9299999999999999,45415,see,33,see,C,NA,default,21,Yes,n/a,Female,english,NA,28
1553,default,block2,charley,ai,0.97,118471,be_right,34,be_right,C,NA,default,21,Yes,n/a,Female,english,NA,29
1553,default,block2,emma,ai,0.07999999999999996,22976,confirm,35,confirm,C,NA,default,21,Yes,n/a,Female,english,NA,30
1553,default,block2,sophia,ai,0.86,42124,acknowledge,36,acknowledge,C,NA,default,21,Yes,n/a,Female,english,NA,31
1553,default,block2,isabella,ai,0.18000000000000005,14434,prove,37,prove,C,NA,default,21,Yes,n/a,Female,english,NA,32
1553,default,block2,pizza,ai,0.020000000000000018,4075,MC,38,MC,MC,NA,default,21,Yes,n/a,Female,english,NA,33
1553,default,block2,josh,ai,0.32999999999999996,35719,announce,39,announce,C,NA,default,21,Yes,n/a,Female,english,NA,34
1553,default,block2,zoe,ai,0.38,5405,confess,40,confess,C,NA,default,21,Yes,n/a,Female,english,NA,35
1553,default,block2,muffins,ai,0.06000000000000005,8165,MC,41,MC,MC,NA,default,21,Yes,n/a,Female,english,NA,36
1553,default,block2,owen,ai,0.51,12340,pretend,42,pretend,C,NA,default,21,Yes,n/a,Female,english,NA,37
1553,default,block2,grace,ai,0.18000000000000005,5176,suggest,43,suggest,C,NA,default,21,Yes,n/a,Female,english,NA,38
1553,default,block2,mary,ai,0.6699999999999999,4400,hear,44,hear,C,NA,default,21,Yes,n/a,Female,english,NA,39
1553,default,block2,jayden,ai,0.6599999999999999,4215,discover,45,discover,C,NA,default,21,Yes,n/a,Female,english,NA,40
1553,default,block2,mia,ai,0.29000000000000004,41623,admit,46,admit,C,NA,default,21,Yes,n/a,Female,english,NA,41
1553,default,block2,jackson,ai,0.62,19713,know,47,know,C,NA,default,21,Yes,n/a,Female,english,NA,42
1553,default,block2,frank,ai,0.83,20616,be_annoyed,48,be_annoyed,C,NA,default,21,Yes,n/a,Female,english,NA,43
1553,default,block2,emily,ai,0.25,15344,reveal,49,reveal,C,NA,default,21,Yes,n/a,Female,english,NA,44
1553,default,block2,garage,ai,0.020000000000000018,14463,MC,50,MC,MC,NA,default,21,Yes,n/a,Female,english,NA,45
1553,default,block2,julian,ai,0.040000000000000036,31657,establish,51,establish,C,NA,default,21,Yes,n/a,Female,english,NA,46
1553,default,block2,tony,ai,0.75,4980,inform,52,inform,C,NA,default,21,Yes,n/a,Female,english,NA,47
1553,default,block2,danny,ai,0.020000000000000018,36836,say,53,say,C,NA,default,21,Yes,n/a,Female,english,NA,48
1553,default,block2,kids,ai,0.020000000000000018,71384,MC,54,MC,MC,NA,default,21,Yes,n/a,Female,english,NA,49
1553,default,block2,ballet,ai,0.030000000000000027,46663,MC,55,MC,MC,NA,default,21,Yes,n/a,Female,english,NA,50
1553,default,block2,josie,ai,0.06000000000000005,6920,demonstrate,56,demonstrate,C,NA,default,21,Yes,n/a,Female,english,NA,51
1553,default,block2,hat,ai,0.06000000000000005,4107,MC,57,MC,MC,NA,default,21,Yes,n/a,Female,english,NA,52
1663,default,block1,danny,projective,0.2,9516,announce,5,announce,C,NA,default,18,Yes,NA,Other,English,NA,1
1663,default,block1,ballet,projective,0.15,5366,MC,6,MC,MC,NA,default,18,Yes,NA,Other,English,NA,2
1663,default,block1,josie,projective,1,8290,inform,7,inform,C,NA,default,18,Yes,NA,Other,English,NA,3
1663,default,block1,charley,projective,1,5910,be_annoyed,8,be_annoyed,C,NA,default,18,Yes,NA,Other,English,NA,4
1663,default,block1,josh,projective,0,6619,be_right,9,be_right,C,NA,default,18,Yes,NA,Other,English,NA,5
1663,default,block1,muffins,projective,0,6431,MC,10,MC,MC,NA,default,18,Yes,NA,Other,English,NA,6
1663,default,block1,jayden,projective,1,3908,confess,11,confess,C,NA,default,18,Yes,NA,Other,English,NA,7
1663,default,block1,jon,projective,0.16,5804,suggest,12,suggest,C,NA,default,18,Yes,NA,Other,English,NA,8
1663,default,block1,mia,projective,0.14,3758,reveal,13,reveal,C,NA,default,18,Yes,NA,Other,English,NA,9
1663,default,block1,isabella,projective,0.12,3727,demonstrate,14,demonstrate,C,NA,default,18,Yes,NA,Other,English,NA,10
1663,default,block1,emma,projective,1,3753,hear,15,hear,C,NA,default,18,Yes,NA,Other,English,NA,11
1663,default,block1,kids,projective,0.22,6999,MC,16,MC,MC,NA,default,18,Yes,NA,Other,English,NA,12
1663,default,block1,julian,projective,0.1,7187,pretend,17,pretend,C,NA,default,18,Yes,NA,Other,English,NA,13
1663,default,block1,zoe,projective,0.17,3954,confirm,18,confirm,C,NA,default,18,Yes,NA,Other,English,NA,14
1663,default,block1,jackson,projective,0.91,5458,know,19,know,C,NA,default,18,Yes,NA,Other,English,NA,15
1663,default,block1,tony,projective,0.92,4396,see,20,see,C,NA,default,18,Yes,NA,Other,English,NA,16
1663,default,block1,frank,projective,0.08,8399,prove,21,prove,C,NA,default,18,Yes,NA,Other,English,NA,17
1663,default,block1,pizza,projective,0.1,3790,MC,22,MC,MC,NA,default,18,Yes,NA,Other,English,NA,18
1663,default,block1,mary,projective,0.11,12382,say,23,say,C,NA,default,18,Yes,NA,Other,English,NA,19
1663,default,block1,hat,projective,0.06,5252,MC,24,MC,MC,NA,default,18,Yes,NA,Other,English,NA,20
1663,default,block1,owen,projective,0.94,5576,discover,25,discover,C,NA,default,18,Yes,NA,Other,English,NA,21
1663,default,block1,sophia,projective,1,3183,acknowledge,26,acknowledge,C,NA,default,18,Yes,NA,Other,English,NA,22
1663,default,block1,emily,projective,0.02,3696,admit,27,admit,C,NA,default,18,Yes,NA,Other,English,NA,23
1663,default,block1,olivia,projective,0.04,5095,think,28,think,C,NA,default,18,Yes,NA,Other,English,NA,24
