rt,response,trial_type,trial_index,time_elapsed,internal_node_id,correct,stimulus,question_order,accuracy,participant_id,ctime
5881,"{""Q0"":""Mary""}",survey-text,0,5897,0.0-0.0-0.0,TRUE,NA,NA,NA,99076ad4-080b-4370-af31-5b512dae610e,2024-08-07 17:25:11 CEST
1065,0,html-button-response,1,6963,0.0-0.0-3.0-0.0,NA,<p style='text-align:left'><b> Correct response! You are a human :) </b><br><br></p>,NA,NA,99076ad4-080b-4370-af31-5b512dae610e,2024-08-07 17:25:11 CEST
7073,0,html-button-response,2,14037,0.0-1.0,NA,"<style>.jsPsych-servey-multi-choice-button {border-radius: 50%;               background-color: white;               border: 0.1px solid #000000;               box-shadow: none;               width: 14px;               height: 14px;               margin-bottom: 5px;               margin-top: 2px;               margin-right: 9px;               color: darked;  }               </style>  <h3>Instructions</h3>  <p style='text-align:left'>In this experiment, you will read nine statements by a speaker, as in the example below, where Candy makes a statement. You will then read three possible responses, here by Lenny.</p>  <p style='text-align:left'> <b>Candy</b>: <i>Jens thinks that it is going to rain tomorrow. </i> <br> <b>Lenny</b>: <br> <button class='jsPsych-servey-multi-choice-button' disabled></button>1.<i> No, it is not going to rain tomorrow. </i> <br> <button class='jsPsych-servey-multi-choice-button' disabled></button>2. <i> Yes, and it is not going to rain tomorrow.</i> <br> <button class='jsPsych-servey-multi-choice-button' disabled></button>3.<i> Yes, but it is not going to rain tomorrow.</i></p>  <p style='text-align:left'>We ask you to choose the response that sounds best to you by selecting the button in front of the response.</p>  <p style='text-align:left'>This experiment will take around 2 minutes, and you will be paid 40 cents.</p>  <p style='text-align:left' font size=""1"">By clicking on the button below, you agree to participate in this experiment, which is conducted by researchers at the University of Stuttgart. You may withdraw from this experiment at any time. The data collected will be anonymous and confidential. If you have any questions, you may contact the requester through Prolific's platform, or directly at st180735@stud.uni-stuttgart.de.</p>",NA,NA,99076ad4-080b-4370-af31-5b512dae610e,2024-08-07 17:25:11 CEST
6482,"{""<b>Robert:</b><em> Betsy has a cat. </em><br><br><b>Maximilian:</b>"":""<em>Yes, and she loves it so much.</em><br> <br> Please choose the response by Maximilian that sounds best to you.""}",survey-multi-choice,3,20522,0.0-2.0,NA,NA,[0],NA,99076ad4-080b-4370-af31-5b512dae610e,2024-08-07 17:25:11 CEST
24448,"{""<b>Clare:</b> <em> Dustin, who lost his key, feels upset.</em><br><br><b>Charlie:</b>"":""<em>Yes, but he didn't lose his key.</em>""}",survey-multi-choice,4,44973,0.0-3.0,NA,NA,[0],NA,99076ad4-080b-4370-af31-5b512dae610e,2024-08-07 17:25:11 CEST
11461,"{""<b>Oliver:</b> <em> Mia confirmed that Greg bought a new car.</em><br><br><b>Steven:</b>"":""<em>Yes, but he didn't buy a new car.</em>""}",survey-multi-choice,5,56438,0.0-4.0,NA,NA,[0],NA,99076ad4-080b-4370-af31-5b512dae610e,2024-08-07 17:25:11 CEST
9342,"{""<b>Mary:</b><em> Arthur took a French course.</em><br><br><b>Lily:</b>"":""<em>No, he didn't take a French course.</em><br> <br> Please choose the response by Lily that sounds best to you.""}",survey-multi-choice,6,65783,0.0-5.0,NA,NA,[0],NA,99076ad4-080b-4370-af31-5b512dae610e,2024-08-07 17:25:11 CEST
6865,"{""<b>Alice:</b> <em> Linda confessed that Danny ate the last cupcake.</em><br><br><b>Isabel:</b>"":""<em>Yes, but he didn't eat the last cupcake.</em>""}",survey-multi-choice,7,72651,0.0-6.0,NA,NA,[0],NA,99076ad4-080b-4370-af31-5b512dae610e,2024-08-07 17:25:11 CEST
5906,"{""<b>Bob:</b> <em> David knows that Ann stole the money.</em><br><br><b>Grace:</b>"":""<em>No, she didn't steal the money.</em>""}",survey-multi-choice,8,78560,0.0-7.0,NA,NA,[0],NA,99076ad4-080b-4370-af31-5b512dae610e,2024-08-07 17:25:11 CEST
6099,"{""<b>William:</b> <em> Ann criticized Raul, who cheated on his wife.</em><br><br><b>Vincent:</b>"":""<em>Yes, but he didn't cheat on his wife.</em>""}",survey-multi-choice,9,84662,0.0-8.0,NA,NA,[0],NA,99076ad4-080b-4370-af31-5b512dae610e,2024-08-07 17:25:11 CEST
4720,"{""<b>Leo:</b> <em> Tony discovered that Lucy broke the plate.</em><br><br><b>Dawn:</b>"":""<em>Yes, but she didn't break the plate.</em>""}",survey-multi-choice,10,89385,0.0-9.0,NA,NA,[0],NA,99076ad4-080b-4370-af31-5b512dae610e,2024-08-07 17:25:11 CEST
3779,"{""<b>Charlotte:</b> <em> Sophia is right that Jack saw the murder.</em><br><br><b>Ken:</b>"":""<em>No, he didn't see the murder.</em>""}",survey-multi-choice,11,93167,0.0-10.0,NA,NA,[0],NA,99076ad4-080b-4370-af31-5b512dae610e,2024-08-07 17:25:11 CEST
8789,"{""P0_Q0"":null,""age"":""23"",""gender"":""female"",""language"":""yes"",""amE"":""yes"",""comments"":""""}",survey,12,102026,0.0-11.0,NA,NA,NA,[],99076ad4-080b-4370-af31-5b512dae610e,2024-08-07 17:25:11 CEST
8430,"{""Q0"":""Sarah""}",survey-text,0,8452,0.0-0.0-0.0,TRUE,NA,NA,NA,e92bae3a-491c-4ce3-8c3d-14361ff60488,2024-08-07 17:25:30 CEST
1346,0,html-button-response,1,9799,0.0-0.0-3.0-0.0,NA,<p style='text-align:left'><b> Correct response! You are a human :) </b><br><br></p>,NA,NA,e92bae3a-491c-4ce3-8c3d-14361ff60488,2024-08-07 17:25:30 CEST
17759,0,html-button-response,2,27559,0.0-1.0,NA,"<style>.jsPsych-servey-multi-choice-button {border-radius: 50%;               background-color: white;               border: 0.1px solid #000000;               box-shadow: none;               width: 14px;               height: 14px;               margin-bottom: 5px;               margin-top: 2px;               margin-right: 9px;               color: darked;  }               </style>  <h3>Instructions</h3>  <p style='text-align:left'>In this experiment, you will read nine statements by a speaker, as in the example below, where Candy makes a statement. You will then read three possible responses, here by Lenny.</p>  <p style='text-align:left'> <b>Candy</b>: <i>Jens thinks that it is going to rain tomorrow. </i> <br> <b>Lenny</b>: <br> <button class='jsPsych-servey-multi-choice-button' disabled></button>1.<i> No, it is not going to rain tomorrow. </i> <br> <button class='jsPsych-servey-multi-choice-button' disabled></button>2. <i> Yes, and it is not going to rain tomorrow.</i> <br> <button class='jsPsych-servey-multi-choice-button' disabled></button>3.<i> Yes, but it is not going to rain tomorrow.</i></p>  <p style='text-align:left'>We ask you to choose the response that sounds best to you by selecting the button in front of the response.</p>  <p style='text-align:left'>This experiment will take around 2 minutes, and you will be paid 40 cents.</p>  <p style='text-align:left' font size=""1"">By clicking on the button below, you agree to participate in this experiment, which is conducted by researchers at the University of Stuttgart. You may withdraw from this experiment at any time. The data collected will be anonymous and confidential. If you have any questions, you may contact the requester through Prolific's platform, or directly at st180735@stud.uni-stuttgart.de.</p>",NA,NA,e92bae3a-491c-4ce3-8c3d-14361ff60488,2024-08-07 17:25:30 CEST
9033,"{""<b>Chloe:</b> <em> Patricia is right that Dustin lost his key.</em><br><br><b>Oliver:</b>"":""<em>No, he didn't lose his key.</em>""}",survey-multi-choice,3,36596,0.0-2.0,NA,NA,[0],NA,e92bae3a-491c-4ce3-8c3d-14361ff60488,2024-08-07 17:25:30 CEST
8354,"{""<b>Vincent:</b> <em> Tony discovered that Lucy broke the plate.</em><br><br><b>Isabel:</b>"":""<em>No, she didn't break the plate.</em>""}",survey-multi-choice,4,44952,0.0-3.0,NA,NA,[0],NA,e92bae3a-491c-4ce3-8c3d-14361ff60488,2024-08-07 17:25:30 CEST
6877,"{""<b>Mary:</b><em> Arthur took a French course.</em><br><br><b>Lily:</b>"":""<em>No, he didn't take a French course.</em><br> <br> Please choose the response by Lily that sounds best to you.""}",survey-multi-choice,5,51832,0.0-4.0,NA,NA,[0],NA,e92bae3a-491c-4ce3-8c3d-14361ff60488,2024-08-07 17:25:30 CEST
10502,"{""<b>Ken:</b> <em> Greg, who bought a new car, has a driver's license.</em><br><br><b>Clare:</b>"":""<em>No, he didn't buy a new car.</em>""}",survey-multi-choice,6,62336,0.0-5.0,NA,NA,[0],NA,e92bae3a-491c-4ce3-8c3d-14361ff60488,2024-08-07 17:25:30 CEST
5365,"{""<b>Robert:</b><em> Betsy has a cat. </em><br><br><b>Maximilian:</b>"":""<em>Yes, and she loves it so much.</em><br> <br> Please choose the response by Maximilian that sounds best to you.""}",survey-multi-choice,7,67703,0.0-6.0,NA,NA,[0],NA,e92bae3a-491c-4ce3-8c3d-14361ff60488,2024-08-07 17:25:30 CEST
7726,"{""<b>Leo:</b> <em> The manager reported Ann, who stole the money.</em><br><br><b>Grace:</b>"":""<em>No, she didn't steal the money.</em>""}",survey-multi-choice,8,75431,0.0-7.0,NA,NA,[0],NA,e92bae3a-491c-4ce3-8c3d-14361ff60488,2024-08-07 17:25:30 CEST
3697,"{""<b>Charlotte:</b> <em> Sophia confirmed that Jack saw the murder.</em><br><br><b>Nina:</b>"":""<em>No, he didn't see the murder.</em>""}",survey-multi-choice,9,79131,0.0-8.0,NA,NA,[0],NA,e92bae3a-491c-4ce3-8c3d-14361ff60488,2024-08-07 17:25:30 CEST
8926,"{""<b>Bob:</b> <em> Linda knows that Danny ate the last cupcake.</em><br><br><b>William:</b>"":""<em>No, he didn't eat the last cupcake.</em>""}",survey-multi-choice,10,88059,0.0-9.0,NA,NA,[0],NA,e92bae3a-491c-4ce3-8c3d-14361ff60488,2024-08-07 17:25:30 CEST
7710,"{""<b>Steven:</b> <em> Emma confessed that Raul cheated on his wife.</em><br><br><b>Alice:</b>"":""<em>No, he didn't cheat on his wife.</em>""}",survey-multi-choice,11,95771,0.0-10.0,NA,NA,[0],NA,e92bae3a-491c-4ce3-8c3d-14361ff60488,2024-08-07 17:25:30 CEST
12410,"{""P0_Q0"":null,""age"":""30"",""gender"":""male"",""language"":""yes"",""amE"":""yes"",""comments"":""none""}",survey,12,108237,0.0-11.0,NA,NA,NA,[],e92bae3a-491c-4ce3-8c3d-14361ff60488,2024-08-07 17:25:30 CEST
6898,"{""Q0"":""Patricia""}",survey-text,0,6932,0.0-0.0-0.0,TRUE,NA,NA,NA,9fd505cb-b3e0-42c9-b574-a6165a355c77,2024-08-07 17:27:57 CEST
1817,0,html-button-response,1,8752,0.0-0.0-3.0-0.0,NA,<p style='text-align:left'><b> Correct response! You are a human :) </b><br><br></p>,NA,NA,9fd505cb-b3e0-42c9-b574-a6165a355c77,2024-08-07 17:27:57 CEST
24866,0,html-button-response,2,33622,0.0-1.0,NA,"<style>.jsPsych-servey-multi-choice-button {border-radius: 50%;               background-color: white;               border: 0.1px solid #000000;               box-shadow: none;               width: 14px;               height: 14px;               margin-bottom: 5px;               margin-top: 2px;               margin-right: 9px;               color: darked;  }               </style>  <h3>Instructions</h3>  <p style='text-align:left'>In this experiment, you will read nine statements by a speaker, as in the example below, where Candy makes a statement. You will then read three possible responses, here by Lenny.</p>  <p style='text-align:left'> <b>Candy</b>: <i>Jens thinks that it is going to rain tomorrow. </i> <br> <b>Lenny</b>: <br> <button class='jsPsych-servey-multi-choice-button' disabled></button>1.<i> No, it is not going to rain tomorrow. </i> <br> <button class='jsPsych-servey-multi-choice-button' disabled></button>2. <i> Yes, and it is not going to rain tomorrow.</i> <br> <button class='jsPsych-servey-multi-choice-button' disabled></button>3.<i> Yes, but it is not going to rain tomorrow.</i></p>  <p style='text-align:left'>We ask you to choose the response that sounds best to you by selecting the button in front of the response.</p>  <p style='text-align:left'>This experiment will take around 2 minutes, and you will be paid 40 cents.</p>  <p style='text-align:left' font size=""1"">By clicking on the button below, you agree to participate in this experiment, which is conducted by researchers at the University of Stuttgart. You may withdraw from this experiment at any time. The data collected will be anonymous and confidential. If you have any questions, you may contact the requester through Prolific's platform, or directly at st180735@stud.uni-stuttgart.de.</p>",NA,NA,9fd505cb-b3e0-42c9-b574-a6165a355c77,2024-08-07 17:27:57 CEST
12662,"{""<b>Mary:</b><em> Arthur took a French course.</em><br><br><b>Lily:</b>"":""<em>No, he didn't take a French course.</em><br> <br> Please choose the response by Lily that sounds best to you.""}",survey-multi-choice,3,46292,0.0-2.0,NA,NA,[0],NA,9fd505cb-b3e0-42c9-b574-a6165a355c77,2024-08-07 17:27:57 CEST
6052,"{""<b>Bob:</b> <em> Linda confirmed that Danny ate the last cupcake.</em><br><br><b>Alice:</b>"":""<em>No, he didn't eat the last cupcake.</em><br><br>Please choose the response by Alice that sounds best to you.""}",survey-multi-choice,4,52356,0.0-3.0,NA,NA,[0],NA,9fd505cb-b3e0-42c9-b574-a6165a355c77,2024-08-07 17:27:57 CEST
3773,"{""<b>Nora:</b> <em> Tony knows that Lucy broke the plate.</em><br><br><b>Steven:</b>"":""<em>Yes, but she didn't break the plate.</em><br><br>Please choose the response by Steven that sounds best to you.""}",survey-multi-choice,5,56137,0.0-4.0,NA,NA,[0],NA,9fd505cb-b3e0-42c9-b574-a6165a355c77,2024-08-07 17:27:57 CEST
3072,"{""<b>Dawn:</b> <em> Emma is right that Raul cheated on his wife.</em><br><br><b>Ken:</b>"":""<em>No, he didn't cheat on his wife.</em>""}",survey-multi-choice,6,59217,0.0-5.0,NA,NA,[0],NA,9fd505cb-b3e0-42c9-b574-a6165a355c77,2024-08-07 17:27:57 CEST
2483,"{""<b>Leo:</b> <em> Sophia confessed that Jack saw the murder.</em><br><br><b>Nina:</b>"":""<em>No, he didn't see the murder.</em>""}",survey-multi-choice,7,61705,0.0-6.0,NA,NA,[0],NA,9fd505cb-b3e0-42c9-b574-a6165a355c77,2024-08-07 17:27:57 CEST
3976,"{""<b>Robert:</b><em> Betsy has a cat. </em><br><br><b>Maximilian:</b>"":""<em>Yes, and she loves it so much.</em><br> <br> Please choose the response by Maximilian that sounds best to you.""}",survey-multi-choice,8,65688,0.0-7.0,NA,NA,[0],NA,9fd505cb-b3e0-42c9-b574-a6165a355c77,2024-08-07 17:27:57 CEST
3577,"{""<b>Charlotte:</b> <em> The neighbor envies Greg, who bought a new car.</em><br><br><b>Isabel:</b>"":""<em>No, he didn't buy a new car.</em>""}",survey-multi-choice,9,69269,0.0-8.0,NA,NA,[0],NA,9fd505cb-b3e0-42c9-b574-a6165a355c77,2024-08-07 17:27:57 CEST
3035,"{""<b>Charlie:</b> <em> Patricia discovered that Dustin lost his key.</em><br><br><b>Clare:</b>"":""<em>No, he didn't lose his key.</em>""}",survey-multi-choice,10,72309,0.0-9.0,NA,NA,[0],NA,9fd505cb-b3e0-42c9-b574-a6165a355c77,2024-08-07 17:27:57 CEST
3668,"{""<b>Oliver:</b> <em> Ann, who stole the money, was caught by the police.</em><br><br><b>Vincent:</b>"":""<em>No, she didn't steal the money.</em>""}",survey-multi-choice,11,75984,0.0-10.0,NA,NA,[0],NA,9fd505cb-b3e0-42c9-b574-a6165a355c77,2024-08-07 17:27:57 CEST
7373,"{""P0_Q0"":null,""age"":""34"",""gender"":""female"",""language"":""yes"",""amE"":""yes"",""comments"":""""}",survey,12,83476,0.0-11.0,NA,NA,NA,[],9fd505cb-b3e0-42c9-b574-a6165a355c77,2024-08-07 17:27:57 CEST
7755,"{""Q0"":""Jennifer""}",survey-text,0,7765,0.0-0.0-0.0,TRUE,NA,NA,NA,e61fdd8b-27ee-49f3-b0cf-e209f95bd6c9,2024-08-08 14:04:50 CEST
8877,0,html-button-response,1,16645,0.0-0.0-3.0-0.0,NA,<p style='text-align:left'><b> Correct response! You are a human :) </b><br><br></p>,NA,NA,e61fdd8b-27ee-49f3-b0cf-e209f95bd6c9,2024-08-08 14:04:50 CEST
26774,0,html-button-response,2,43420,0.0-1.0,NA,"<style>.jsPsych-servey-multi-choice-button {border-radius: 50%;               background-color: white;               border: 0.1px solid #000000;               box-shadow: none;               width: 14px;               height: 14px;               margin-bottom: 5px;               margin-top: 2px;               margin-right: 9px;               color: darked;  }               </style>  <h3>Instructions</h3>  <p style='text-align:left'>In this experiment, you will read nine statements by a speaker, as in the example below, where Candy makes a statement. You will then read three possible responses, here by Lenny.</p>  <p style='text-align:left'> <b>Candy</b>: <i>Jens thinks that it is going to rain tomorrow. </i> <br> <b>Lenny</b>: <br> <button class='jsPsych-servey-multi-choice-button' disabled></button>1.<i> No, it is not going to rain tomorrow. </i> <br> <button class='jsPsych-servey-multi-choice-button' disabled></button>2. <i> Yes, and it is not going to rain tomorrow.</i> <br> <button class='jsPsych-servey-multi-choice-button' disabled></button>3.<i> Yes, but it is not going to rain tomorrow.</i></p>  <p style='text-align:left'>We ask you to choose the response that sounds best to you by selecting the button in front of the response.</p>  <p style='text-align:left'>This experiment will take around 2 minutes, and you will be paid 40 cents.</p>  <p style='text-align:left' font size=""1"">By clicking on the button below, you agree to participate in this experiment, which is conducted by researchers at the University of Stuttgart. You may withdraw from this experiment at any time. The data collected will be anonymous and confidential. If you have any questions, you may contact the requester through Prolific's platform, or directly at st180735@stud.uni-stuttgart.de.</p>",NA,NA,e61fdd8b-27ee-49f3-b0cf-e209f95bd6c9,2024-08-08 14:04:50 CEST
7515,"{""<b>Nora:</b> <em> The manager reported Ann, who stole the money.</em><br><br><b>Chloe:</b>"":""<em>Yes, but she didn't steal the money.</em>""}",survey-multi-choice,3,50939,0.0-2.0,NA,NA,[0],NA,e61fdd8b-27ee-49f3-b0cf-e209f95bd6c9,2024-08-08 14:04:50 CEST
10478,"{""<b>Leo:</b> <em> Linda confessed that Danny ate the last cupcake.</em><br><br><b>Charlotte:</b>"":""<em>No, he didn't eat the last cupcake.</em>""}",survey-multi-choice,4,61420,0.0-3.0,NA,NA,[0],NA,e61fdd8b-27ee-49f3-b0cf-e209f95bd6c9,2024-08-08 14:04:50 CEST
8409,"{""<b>Dawn:</b> <em> Patricia discovered that Dustin lost his key.</em><br><br><b>Frank:</b>"":""<em>No, he didn't lose his key.</em>""}",survey-multi-choice,5,69833,0.0-4.0,NA,NA,[0],NA,e61fdd8b-27ee-49f3-b0cf-e209f95bd6c9,2024-08-08 14:04:50 CEST
11431,"{""<b>Steven:</b> <em> Emma knows that Raul cheated on his wife.</em><br><br><b>Vincent:</b>"":""<em>No, he didn't cheat on his wife.</em>""}",survey-multi-choice,6,81266,0.0-5.0,NA,NA,[0],NA,e61fdd8b-27ee-49f3-b0cf-e209f95bd6c9,2024-08-08 14:04:50 CEST
8447,"{""<b>Mary:</b><em> Arthur took a French course.</em><br><br><b>Lily:</b>"":""<em>No, he didn't take a French course.</em><br> <br> Please choose the response by Lily that sounds best to you.""}",survey-multi-choice,7,89716,0.0-6.0,NA,NA,[0],NA,e61fdd8b-27ee-49f3-b0cf-e209f95bd6c9,2024-08-08 14:04:50 CEST
7478,"{""<b>Robert:</b><em> Betsy has a cat. </em><br><br><b>Maximilian:</b>"":""<em>Yes, and she loves it so much.</em><br> <br> Please choose the response by Maximilian that sounds best to you.""}",survey-multi-choice,8,97198,0.0-7.0,NA,NA,[0],NA,e61fdd8b-27ee-49f3-b0cf-e209f95bd6c9,2024-08-08 14:04:50 CEST
7833,"{""<b>Bob:</b> <em> Sophia confirmed that Jack saw the murder.</em><br><br><b>Alice:</b>"":""<em>No, he didn't see the murder.</em>""}",survey-multi-choice,9,105035,0.0-8.0,NA,NA,[0],NA,e61fdd8b-27ee-49f3-b0cf-e209f95bd6c9,2024-08-08 14:04:50 CEST
10195,"{""<b>Isabel:</b> <em> Mia is right that Greg bought a new car.</em><br><br><b>Noah:</b>"":""<em>No, he didn't buy a new car.</em>""}",survey-multi-choice,10,115234,0.0-9.0,NA,NA,[0],NA,e61fdd8b-27ee-49f3-b0cf-e209f95bd6c9,2024-08-08 14:04:50 CEST
14132,"{""<b>Clare:</b> <em> Lucy, who broke the plate, apologized.</em><br><br><b>Oliver:</b>"":""<em>Yes, but she didn't break the plate.</em>""}",survey-multi-choice,11,129370,0.0-10.0,NA,NA,[0],NA,e61fdd8b-27ee-49f3-b0cf-e209f95bd6c9,2024-08-08 14:04:50 CEST
16691,"{""P0_Q0"":null,""age"":""32"",""gender"":""female"",""language"":""yes"",""amE"":""yes"",""comments"":""""}",survey,12,146096,0.0-11.0,NA,NA,NA,[],e61fdd8b-27ee-49f3-b0cf-e209f95bd6c9,2024-08-08 14:04:50 CEST
5753,"{""Q0"":""Linda""}",survey-text,0,5762,0.0-0.0-0.0,TRUE,NA,NA,NA,4572f0e0-9fa0-4721-8df2-04490a48d170,2024-08-08 14:08:53 CEST
1244,0,html-button-response,1,7008,0.0-0.0-3.0-0.0,NA,<p style='text-align:left'><b> Correct response! You are a human :) </b><br><br></p>,NA,NA,4572f0e0-9fa0-4721-8df2-04490a48d170,2024-08-08 14:08:53 CEST
6416,0,html-button-response,2,13425,0.0-1.0,NA,"<style>.jsPsych-servey-multi-choice-button {border-radius: 50%;               background-color: white;               border: 0.1px solid #000000;               box-shadow: none;               width: 14px;               height: 14px;               margin-bottom: 5px;               margin-top: 2px;               margin-right: 9px;               color: darked;  }               </style>  <h3>Instructions</h3>  <p style='text-align:left'>In this experiment, you will read nine statements by a speaker, as in the example below, where Candy makes a statement. You will then read three possible responses, here by Lenny.</p>  <p style='text-align:left'> <b>Candy</b>: <i>Jens thinks that it is going to rain tomorrow. </i> <br> <b>Lenny</b>: <br> <button class='jsPsych-servey-multi-choice-button' disabled></button>1.<i> No, it is not going to rain tomorrow. </i> <br> <button class='jsPsych-servey-multi-choice-button' disabled></button>2. <i> Yes, and it is not going to rain tomorrow.</i> <br> <button class='jsPsych-servey-multi-choice-button' disabled></button>3.<i> Yes, but it is not going to rain tomorrow.</i></p>  <p style='text-align:left'>We ask you to choose the response that sounds best to you by selecting the button in front of the response.</p>  <p style='text-align:left'>This experiment will take around 2 minutes, and you will be paid 40 cents.</p>  <p style='text-align:left' font size=""1"">By clicking on the button below, you agree to participate in this experiment, which is conducted by researchers at the University of Stuttgart. You may withdraw from this experiment at any time. The data collected will be anonymous and confidential. If you have any questions, you may contact the requester through Prolific's platform, or directly at st180735@stud.uni-stuttgart.de.</p>",NA,NA,4572f0e0-9fa0-4721-8df2-04490a48d170,2024-08-08 14:08:53 CEST
6241,"{""<b>Robert:</b><em> Betsy has a cat. </em><br><br><b>Maximilian:</b>"":""<em>Yes, and she loves it so much.</em><br> <br> Please choose the response by Maximilian that sounds best to you.""}",survey-multi-choice,3,19682,0.0-2.0,NA,NA,[0],NA,4572f0e0-9fa0-4721-8df2-04490a48d170,2024-08-08 14:08:53 CEST
12129,"{""<b>Nina:</b> <em> Mia discovered that Greg bought a new car.</em><br><br><b>Nora:</b>"":""<em>No, he didn't buy a new car.</em>""}",survey-multi-choice,4,31828,0.0-3.0,NA,NA,[0],NA,4572f0e0-9fa0-4721-8df2-04490a48d170,2024-08-08 14:08:53 CEST
7432,"{""<b>Bob:</b> <em> Emma confessed that Raul cheated on his wife.</em><br><br><b>Charlotte:</b>"":""<em>No, he didn't cheat on his wife.</em>""}",survey-multi-choice,5,39277,0.0-4.0,NA,NA,[0],NA,4572f0e0-9fa0-4721-8df2-04490a48d170,2024-08-08 14:08:53 CEST
12531,"{""<b>Mary:</b><em> Arthur took a French course.</em><br><br><b>Lily:</b>"":""<em>No, he didn't take a French course.</em><br> <br> Please choose the response by Lily that sounds best to you.""}",survey-multi-choice,6,51824,0.0-5.0,NA,NA,[0],NA,4572f0e0-9fa0-4721-8df2-04490a48d170,2024-08-08 14:08:53 CEST
6151,"{""<b>Chloe:</b> <em> Tony knows that Lucy broke the plate.</em><br><br><b>Oliver:</b>"":""<em>No, she didn't break the plate.</em>""}",survey-multi-choice,7,57993,0.0-6.0,NA,NA,[0],NA,4572f0e0-9fa0-4721-8df2-04490a48d170,2024-08-08 14:08:53 CEST
5734,"{""<b>Steven:</b> <em> Linda confirmed that Danny ate the last cupcake.</em><br><br><b>Isabel:</b>"":""<em>No, he didn't eat the last cupcake.</em><br><br>Please choose the response by Isabel that sounds best to you.""}",survey-multi-choice,8,63743,0.0-7.0,NA,NA,[0],NA,4572f0e0-9fa0-4721-8df2-04490a48d170,2024-08-08 14:08:53 CEST
9138,"{""<b>Alice:</b> <em> Dustin, who lost his key, feels upset.</em><br><br><b>Frank:</b>"":""<em>No, he didn't lose his key.</em><br><br>Please choose the response by Frank that sounds best to you.""}",survey-multi-choice,9,72897,0.0-8.0,NA,NA,[0],NA,4572f0e0-9fa0-4721-8df2-04490a48d170,2024-08-08 14:08:53 CEST
4845,"{""<b>Clare:</b> <em> The police found Jack, who saw the murder.</em><br><br><b>Vincent:</b>"":""<em>Yes, but he didn't see the murder.</em><br><br>Please choose the response by Vincent that sounds best to you.""}",survey-multi-choice,10,77759,0.0-9.0,NA,NA,[0],NA,4572f0e0-9fa0-4721-8df2-04490a48d170,2024-08-08 14:08:53 CEST
6038,"{""<b>Dawn:</b> <em> David is right that Ann stole the money.</em><br><br><b>Leo:</b>"":""<em>No, she didn't steal the money.</em>""}",survey-multi-choice,11,83814,0.0-10.0,NA,NA,[0],NA,4572f0e0-9fa0-4721-8df2-04490a48d170,2024-08-08 14:08:53 CEST
9895,"{""P0_Q0"":null,""age"":""34"",""gender"":""female"",""language"":""yes"",""amE"":""yes"",""comments"":""no idea""}",survey,12,93782,0.0-11.0,NA,NA,NA,[],4572f0e0-9fa0-4721-8df2-04490a48d170,2024-08-08 14:08:53 CEST
18022,"{""Q0"":""Margaret""}",survey-text,0,18041,0.0-0.0-0.0,TRUE,NA,NA,NA,8cab70d1-9f74-4611-8c8f-580fa054a3bb,2024-08-08 14:10:47 CEST
1558,0,html-button-response,1,19600,0.0-0.0-3.0-0.0,NA,<p style='text-align:left'><b> Correct response! You are a human :) </b><br><br></p>,NA,NA,8cab70d1-9f74-4611-8c8f-580fa054a3bb,2024-08-08 14:10:47 CEST
24927,0,html-button-response,2,44528,0.0-1.0,NA,"<style>.jsPsych-servey-multi-choice-button {border-radius: 50%;               background-color: white;               border: 0.1px solid #000000;               box-shadow: none;               width: 14px;               height: 14px;               margin-bottom: 5px;               margin-top: 2px;               margin-right: 9px;               color: darked;  }               </style>  <h3>Instructions</h3>  <p style='text-align:left'>In this experiment, you will read nine statements by a speaker, as in the example below, where Candy makes a statement. You will then read three possible responses, here by Lenny.</p>  <p style='text-align:left'> <b>Candy</b>: <i>Jens thinks that it is going to rain tomorrow. </i> <br> <b>Lenny</b>: <br> <button class='jsPsych-servey-multi-choice-button' disabled></button>1.<i> No, it is not going to rain tomorrow. </i> <br> <button class='jsPsych-servey-multi-choice-button' disabled></button>2. <i> Yes, and it is not going to rain tomorrow.</i> <br> <button class='jsPsych-servey-multi-choice-button' disabled></button>3.<i> Yes, but it is not going to rain tomorrow.</i></p>  <p style='text-align:left'>We ask you to choose the response that sounds best to you by selecting the button in front of the response.</p>  <p style='text-align:left'>This experiment will take around 2 minutes, and you will be paid 40 cents.</p>  <p style='text-align:left' font size=""1"">By clicking on the button below, you agree to participate in this experiment, which is conducted by researchers at the University of Stuttgart. You may withdraw from this experiment at any time. The data collected will be anonymous and confidential. If you have any questions, you may contact the requester through Prolific's platform, or directly at st180735@stud.uni-stuttgart.de.</p>",NA,NA,8cab70d1-9f74-4611-8c8f-580fa054a3bb,2024-08-08 14:10:47 CEST
27021,"{""<b>Bob:</b> <em> Sophia confessed that Jack saw the murder.</em><br><br><b>Noah:</b>"":""<em>Yes, but he didn't see the murder.</em>""}",survey-multi-choice,3,71552,0.0-2.0,NA,NA,[0],NA,8cab70d1-9f74-4611-8c8f-580fa054a3bb,2024-08-08 14:10:47 CEST
14196,"{""<b>Charlie:</b> <em> Tony is right that Lucy broke the plate.</em><br><br><b>Alice:</b>"":""<em>No, she didn't break the plate.</em>""}",survey-multi-choice,4,85752,0.0-3.0,NA,NA,[0],NA,8cab70d1-9f74-4611-8c8f-580fa054a3bb,2024-08-08 14:10:47 CEST
10101,"{""<b>Mary:</b><em> Arthur took a French course.</em><br><br><b>Lily:</b>"":""<em>No, he didn't take a French course.</em><br> <br> Please choose the response by Lily that sounds best to you.""}",survey-multi-choice,5,95856,0.0-4.0,NA,NA,[0],NA,8cab70d1-9f74-4611-8c8f-580fa054a3bb,2024-08-08 14:10:47 CEST
11445,"{""<b>Steven:</b> <em> David knows that Ann stole the money.</em><br><br><b>Charlotte:</b>"":""<em>No, she didn't steal the money.</em>""}",survey-multi-choice,6,107304,0.0-5.0,NA,NA,[0],NA,8cab70d1-9f74-4611-8c8f-580fa054a3bb,2024-08-08 14:10:47 CEST
16221,"{""<b>Nora:</b> <em> Linda discovered that Danny ate the last cupcake.</em><br><br><b>William:</b>"":""<em>No, he didn't eat the last cupcake.</em><br><br>Please choose the response by William that sounds best to you.""}",survey-multi-choice,7,123529,0.0-6.0,NA,NA,[0],NA,8cab70d1-9f74-4611-8c8f-580fa054a3bb,2024-08-08 14:10:47 CEST
25404,"{""<b>Chloe:</b> <em> Dustin, who lost his key, feels upset.</em><br><br><b>Dawn:</b>"":""<em>No, he didn't lose his key.</em>""}",survey-multi-choice,8,148936,0.0-7.0,NA,NA,[0],NA,8cab70d1-9f74-4611-8c8f-580fa054a3bb,2024-08-08 14:10:47 CEST
16020,"{""<b>Leo:</b> <em> Ann criticized Raul, who cheated on his wife.</em><br><br><b>Nina:</b>"":""<em>Yes, but he didn't cheat on his wife.</em>""}",survey-multi-choice,9,164960,0.0-8.0,NA,NA,[0],NA,8cab70d1-9f74-4611-8c8f-580fa054a3bb,2024-08-08 14:10:47 CEST
6621,"{""<b>Robert:</b><em> Betsy has a cat. </em><br><br><b>Maximilian:</b>"":""<em>Yes, and she loves it so much.</em><br> <br> Please choose the response by Maximilian that sounds best to you.""}",survey-multi-choice,10,171584,0.0-9.0,NA,NA,[0],NA,8cab70d1-9f74-4611-8c8f-580fa054a3bb,2024-08-08 14:10:47 CEST
13293,"{""<b>Grace:</b> <em> Mia confirmed that Greg bought a new car.</em><br><br><b>Frank:</b>"":""<em>No, he didn't buy a new car.</em><br><br>Please choose the response by Frank that sounds best to you.""}",survey-multi-choice,11,184880,0.0-10.0,NA,NA,[0],NA,8cab70d1-9f74-4611-8c8f-580fa054a3bb,2024-08-08 14:10:47 CEST
12374,"{""P0_Q0"":null,""age"":""28"",""gender"":""female"",""language"":""yes"",""amE"":""yes"",""comments"":""""}",survey,12,197327,0.0-11.0,NA,NA,NA,[],8cab70d1-9f74-4611-8c8f-580fa054a3bb,2024-08-08 14:10:47 CEST
10028,"{""Q0"":""Margaret""}",survey-text,0,10039,0.0-0.0-0.0,TRUE,NA,NA,NA,b7141adc-351a-410c-b493-cf3d05099243,2024-08-08 14:11:23 CEST
1400,0,html-button-response,1,11440,0.0-0.0-3.0-0.0,NA,<p style='text-align:left'><b> Correct response! You are a human :) </b><br><br></p>,NA,NA,b7141adc-351a-410c-b493-cf3d05099243,2024-08-08 14:11:23 CEST
27375,0,html-button-response,2,38817,0.0-1.0,NA,"<style>.jsPsych-servey-multi-choice-button {border-radius: 50%;               background-color: white;               border: 0.1px solid #000000;               box-shadow: none;               width: 14px;               height: 14px;               margin-bottom: 5px;               margin-top: 2px;               margin-right: 9px;               color: darked;  }               </style>  <h3>Instructions</h3>  <p style='text-align:left'>In this experiment, you will read nine statements by a speaker, as in the example below, where Candy makes a statement. You will then read three possible responses, here by Lenny.</p>  <p style='text-align:left'> <b>Candy</b>: <i>Jens thinks that it is going to rain tomorrow. </i> <br> <b>Lenny</b>: <br> <button class='jsPsych-servey-multi-choice-button' disabled></button>1.<i> No, it is not going to rain tomorrow. </i> <br> <button class='jsPsych-servey-multi-choice-button' disabled></button>2. <i> Yes, and it is not going to rain tomorrow.</i> <br> <button class='jsPsych-servey-multi-choice-button' disabled></button>3.<i> Yes, but it is not going to rain tomorrow.</i></p>  <p style='text-align:left'>We ask you to choose the response that sounds best to you by selecting the button in front of the response.</p>  <p style='text-align:left'>This experiment will take around 2 minutes, and you will be paid 40 cents.</p>  <p style='text-align:left' font size=""1"">By clicking on the button below, you agree to participate in this experiment, which is conducted by researchers at the University of Stuttgart. You may withdraw from this experiment at any time. The data collected will be anonymous and confidential. If you have any questions, you may contact the requester through Prolific's platform, or directly at st180735@stud.uni-stuttgart.de.</p>",NA,NA,b7141adc-351a-410c-b493-cf3d05099243,2024-08-08 14:11:23 CEST
10048,"{""<b>Nina:</b> <em> David confirmed that Ann stole the money.</em><br><br><b>Bob:</b>"":""<em>No, she didn't steal the money.</em>""}",survey-multi-choice,3,48867,0.0-2.0,NA,NA,[0],NA,b7141adc-351a-410c-b493-cf3d05099243,2024-08-08 14:11:23 CEST
11129,"{""<b>Nora:</b> <em> Emma discovered that Raul cheated on his wife.</em><br><br><b>Oliver:</b>"":""<em>No, he didn't cheat on his wife.</em>""}",survey-multi-choice,4,59998,0.0-3.0,NA,NA,[0],NA,b7141adc-351a-410c-b493-cf3d05099243,2024-08-08 14:11:23 CEST
14083,"{""<b>Charlotte:</b> <em> Linda is right that Danny ate the last cupcake.</em><br><br><b>Vincent:</b>"":""<em>No, he didn't eat the last cupcake.</em>""}",survey-multi-choice,5,74083,0.0-4.0,NA,NA,[0],NA,b7141adc-351a-410c-b493-cf3d05099243,2024-08-08 14:11:23 CEST
12111,"{""<b>Mary:</b><em> Arthur took a French course.</em><br><br><b>Lily:</b>"":""<em>No, he didn't take a French course.</em><br> <br> Please choose the response by Lily that sounds best to you.""}",survey-multi-choice,6,86196,0.0-5.0,NA,NA,[0],NA,b7141adc-351a-410c-b493-cf3d05099243,2024-08-08 14:11:23 CEST
9628,"{""<b>Frank:</b> <em> Lucy, who broke the plate, apologized.</em><br><br><b>Dawn:</b>"":""<em>No, she didn't break the plate.</em><br><br>Please choose the response by Dawn that sounds best to you.""}",survey-multi-choice,7,95826,0.0-6.0,NA,NA,[0],NA,b7141adc-351a-410c-b493-cf3d05099243,2024-08-08 14:11:23 CEST
21209,"{""<b>Isabel:</b> <em> Patricia knows that Dustin lost his key.</em><br><br><b>Chloe:</b>"":""<em>No, he didn't lose his key.</em>""}",survey-multi-choice,8,117037,0.0-7.0,NA,NA,[0],NA,b7141adc-351a-410c-b493-cf3d05099243,2024-08-08 14:11:23 CEST
8698,"{""<b>Steven:</b> <em> Sophia confessed that Jack saw the murder.</em><br><br><b>Leo:</b>"":""<em>No, he didn't see the murder.</em>""}",survey-multi-choice,9,125738,0.0-8.0,NA,NA,[0],NA,b7141adc-351a-410c-b493-cf3d05099243,2024-08-08 14:11:23 CEST
4671,"{""<b>Robert:</b><em> Betsy has a cat. </em><br><br><b>Maximilian:</b>"":""<em>Yes, and she loves it so much.</em><br> <br> Please choose the response by Maximilian that sounds best to you.""}",survey-multi-choice,10,130410,0.0-9.0,NA,NA,[0],NA,b7141adc-351a-410c-b493-cf3d05099243,2024-08-08 14:11:23 CEST
15832,"{""<b>Noah:</b> <em> The neighbor envies Greg, who bought a new car.</em><br><br><b>Grace:</b>"":""<em>Yes, but he didn't buy a new car.</em><br><br>Please choose the response by Grace that sounds best to you.""}",survey-multi-choice,11,146243,0.0-10.0,NA,NA,[0],NA,b7141adc-351a-410c-b493-cf3d05099243,2024-08-08 14:11:23 CEST
10096,"{""P0_Q0"":null,""age"":""37"",""gender"":""female"",""language"":""yes"",""amE"":""yes"",""comments"":""""}",survey,12,156378,0.0-11.0,NA,NA,NA,[],b7141adc-351a-410c-b493-cf3d05099243,2024-08-08 14:11:23 CEST
16719,"{""Q0"":""Margaret""}",survey-text,0,16740,0.0-0.0-0.0,TRUE,NA,NA,NA,ed4b949d-e4ac-44d8-a264-abd02c148d03,2024-08-08 14:12:00 CEST
1326,0,html-button-response,1,18068,0.0-0.0-3.0-0.0,NA,<p style='text-align:left'><b> Correct response! You are a human :) </b><br><br></p>,NA,NA,ed4b949d-e4ac-44d8-a264-abd02c148d03,2024-08-08 14:12:00 CEST
26454,0,html-button-response,2,44523,0.0-1.0,NA,"<style>.jsPsych-servey-multi-choice-button {border-radius: 50%;               background-color: white;               border: 0.1px solid #000000;               box-shadow: none;               width: 14px;               height: 14px;               margin-bottom: 5px;               margin-top: 2px;               margin-right: 9px;               color: darked;  }               </style>  <h3>Instructions</h3>  <p style='text-align:left'>In this experiment, you will read nine statements by a speaker, as in the example below, where Candy makes a statement. You will then read three possible responses, here by Lenny.</p>  <p style='text-align:left'> <b>Candy</b>: <i>Jens thinks that it is going to rain tomorrow. </i> <br> <b>Lenny</b>: <br> <button class='jsPsych-servey-multi-choice-button' disabled></button>1.<i> No, it is not going to rain tomorrow. </i> <br> <button class='jsPsych-servey-multi-choice-button' disabled></button>2. <i> Yes, and it is not going to rain tomorrow.</i> <br> <button class='jsPsych-servey-multi-choice-button' disabled></button>3.<i> Yes, but it is not going to rain tomorrow.</i></p>  <p style='text-align:left'>We ask you to choose the response that sounds best to you by selecting the button in front of the response.</p>  <p style='text-align:left'>This experiment will take around 2 minutes, and you will be paid 40 cents.</p>  <p style='text-align:left' font size=""1"">By clicking on the button below, you agree to participate in this experiment, which is conducted by researchers at the University of Stuttgart. You may withdraw from this experiment at any time. The data collected will be anonymous and confidential. If you have any questions, you may contact the requester through Prolific's platform, or directly at st180735@stud.uni-stuttgart.de.</p>",NA,NA,ed4b949d-e4ac-44d8-a264-abd02c148d03,2024-08-08 14:12:00 CEST
13861,"{""<b>Mary:</b><em> Arthur took a French course.</em><br><br><b>Lily:</b>"":""<em>No, he didn't take a French course.</em><br> <br> Please choose the response by Lily that sounds best to you.""}",survey-multi-choice,3,58388,0.0-2.0,NA,NA,[0],NA,ed4b949d-e4ac-44d8-a264-abd02c148d03,2024-08-08 14:12:00 CEST
10997,"{""<b>Chloe:</b> <em> Jack, who saw the murder, ran away.</em><br><br><b>William:</b>"":""<em>No, he didn't see the murder.</em>""}",survey-multi-choice,4,69388,0.0-3.0,NA,NA,[0],NA,ed4b949d-e4ac-44d8-a264-abd02c148d03,2024-08-08 14:12:00 CEST
9373,"{""<b>Alice:</b> <em> Mia knows that Greg bought a new car.</em><br><br><b>Clare:</b>"":""<em>No, he didn't buy a new car.</em>""}",survey-multi-choice,5,78764,0.0-4.0,NA,NA,[0],NA,ed4b949d-e4ac-44d8-a264-abd02c148d03,2024-08-08 14:12:00 CEST
7829,"{""<b>Leo:</b> <em> Tony confessed that Lucy broke the plate.</em><br><br><b>Charlie:</b>"":""<em>No, she didn't break the plate.</em><br><br>Please choose the response by Charlie that sounds best to you.""}",survey-multi-choice,6,86597,0.0-5.0,NA,NA,[0],NA,ed4b949d-e4ac-44d8-a264-abd02c148d03,2024-08-08 14:12:00 CEST
8902,"{""<b>Oliver:</b> <em> Emma discovered that Raul cheated on his wife.</em><br><br><b>Ken:</b>"":""<em>No, he didn't cheat on his wife.</em>""}",survey-multi-choice,7,95502,0.0-6.0,NA,NA,[0],NA,ed4b949d-e4ac-44d8-a264-abd02c148d03,2024-08-08 14:12:00 CEST
9924,"{""<b>Bob:</b> <em> David is right that Ann stole the money.</em><br><br><b>Noah:</b>"":""<em>No, she didn't steal the money.</em>""}",survey-multi-choice,8,105430,0.0-7.0,NA,NA,[0],NA,ed4b949d-e4ac-44d8-a264-abd02c148d03,2024-08-08 14:12:00 CEST
6068,"{""<b>Frank:</b> <em> Linda confirmed that Danny ate the last cupcake.</em><br><br><b>Isabel:</b>"":""<em>No, he didn't eat the last cupcake.</em><br><br>Please choose the response by Isabel that sounds best to you.""}",survey-multi-choice,9,111501,0.0-8.0,NA,NA,[0],NA,ed4b949d-e4ac-44d8-a264-abd02c148d03,2024-08-08 14:12:00 CEST
5525,"{""<b>Dawn:</b> <em> The boss scolded Dustin, who lost his key.</em><br><br><b>Grace:</b>"":""<em>No, he didn't lose his key.</em>""}",survey-multi-choice,10,117029,0.0-9.0,NA,NA,[0],NA,ed4b949d-e4ac-44d8-a264-abd02c148d03,2024-08-08 14:12:00 CEST
6149,"{""<b>Robert:</b><em> Betsy has a cat. </em><br><br><b>Maximilian:</b>"":""<em>Yes, and she loves it so much.</em><br> <br> Please choose the response by Maximilian that sounds best to you.""}",survey-multi-choice,11,123181,0.0-10.0,NA,NA,[0],NA,ed4b949d-e4ac-44d8-a264-abd02c148d03,2024-08-08 14:12:00 CEST
11575,"{""P0_Q0"":null,""age"":""19"",""gender"":""male"",""language"":""yes"",""amE"":""yes"",""comments"":""""}",survey,12,134827,0.0-11.0,NA,NA,NA,[],ed4b949d-e4ac-44d8-a264-abd02c148d03,2024-08-08 14:12:00 CEST
14264,"{""Q0"":""Margaret""}",survey-text,0,14307,0.0-0.0-0.0,TRUE,NA,NA,NA,78db6136-1468-4c5c-a348-aff0390e7e2b,2024-08-08 14:18:17 CEST
1674,0,html-button-response,1,15985,0.0-0.0-3.0-0.0,NA,<p style='text-align:left'><b> Correct response! You are a human :) </b><br><br></p>,NA,NA,78db6136-1468-4c5c-a348-aff0390e7e2b,2024-08-08 14:18:17 CEST
13883,0,html-button-response,2,29871,0.0-1.0,NA,"<style>.jsPsych-servey-multi-choice-button {border-radius: 50%;               background-color: white;               border: 0.1px solid #000000;               box-shadow: none;               width: 14px;               height: 14px;               margin-bottom: 5px;               margin-top: 2px;               margin-right: 9px;               color: darked;  }               </style>  <h3>Instructions</h3>  <p style='text-align:left'>In this experiment, you will read nine statements by a speaker, as in the example below, where Candy makes a statement. You will then read three possible responses, here by Lenny.</p>  <p style='text-align:left'> <b>Candy</b>: <i>Jens thinks that it is going to rain tomorrow. </i> <br> <b>Lenny</b>: <br> <button class='jsPsych-servey-multi-choice-button' disabled></button>1.<i> No, it is not going to rain tomorrow. </i> <br> <button class='jsPsych-servey-multi-choice-button' disabled></button>2. <i> Yes, and it is not going to rain tomorrow.</i> <br> <button class='jsPsych-servey-multi-choice-button' disabled></button>3.<i> Yes, but it is not going to rain tomorrow.</i></p>  <p style='text-align:left'>We ask you to choose the response that sounds best to you by selecting the button in front of the response.</p>  <p style='text-align:left'>This experiment will take around 2 minutes, and you will be paid 40 cents.</p>  <p style='text-align:left' font size=""1"">By clicking on the button below, you agree to participate in this experiment, which is conducted by researchers at the University of Stuttgart. You may withdraw from this experiment at any time. The data collected will be anonymous and confidential. If you have any questions, you may contact the requester through Prolific's platform, or directly at st180735@stud.uni-stuttgart.de.</p>",NA,NA,78db6136-1468-4c5c-a348-aff0390e7e2b,2024-08-08 14:18:17 CEST
11531,"{""<b>Mary:</b><em> Arthur took a French course.</em><br><br><b>Lily:</b>"":""<em>No, he didn't take a French course.</em><br> <br> Please choose the response by Lily that sounds best to you.""}",survey-multi-choice,3,41406,0.0-2.0,NA,NA,[0],NA,78db6136-1468-4c5c-a348-aff0390e7e2b,2024-08-08 14:18:17 CEST
11822,"{""<b>Dawn:</b> <em> Linda discovered that Danny ate the last cupcake.</em><br><br><b>Isabel:</b>"":""<em>No, he didn't eat the last cupcake.</em>""}",survey-multi-choice,4,53234,0.0-3.0,NA,NA,[0],NA,78db6136-1468-4c5c-a348-aff0390e7e2b,2024-08-08 14:18:17 CEST
6496,"{""<b>Robert:</b><em> Betsy has a cat. </em><br><br><b>Maximilian:</b>"":""<em>Yes, and she loves it so much.</em><br> <br> Please choose the response by Maximilian that sounds best to you.""}",survey-multi-choice,5,59735,0.0-4.0,NA,NA,[0],NA,78db6136-1468-4c5c-a348-aff0390e7e2b,2024-08-08 14:18:17 CEST
6153,"{""<b>Alice:</b> <em> Mia confirmed that Greg bought a new car.</em><br><br><b>Steven:</b>"":""<em>No, he didn't buy a new car.</em><br><br>Please choose the response by Steven that sounds best to you.""}",survey-multi-choice,6,65891,0.0-5.0,NA,NA,[0],NA,78db6136-1468-4c5c-a348-aff0390e7e2b,2024-08-08 14:18:17 CEST
9652,"{""<b>Frank:</b> <em> Patricia is right that Dustin lost his key.</em><br><br><b>Clare:</b>"":""<em>No, he didn't lose his key.</em>""}",survey-multi-choice,7,75548,0.0-6.0,NA,NA,[0],NA,78db6136-1468-4c5c-a348-aff0390e7e2b,2024-08-08 14:18:17 CEST
6273,"{""<b>Oliver:</b> <em> Raul, who cheated on his wife, feels guilty.</em><br><br><b>Leo:</b>"":""<em>No, he didn't cheat on his wife.</em><br><br>Please choose the response by Leo that sounds best to you.""}",survey-multi-choice,8,81825,0.0-7.0,NA,NA,[0],NA,78db6136-1468-4c5c-a348-aff0390e7e2b,2024-08-08 14:18:17 CEST
6287,"{""<b>Noah:</b> <em> Tony confessed that Lucy broke the plate.</em><br><br><b>Nora:</b>"":""<em>No, she didn't break the plate.</em>""}",survey-multi-choice,9,88116,0.0-8.0,NA,NA,[0],NA,78db6136-1468-4c5c-a348-aff0390e7e2b,2024-08-08 14:18:17 CEST
7536,"{""<b>Charlotte:</b> <em> Sophia knows that Jack saw the murder.</em><br><br><b>Bob:</b>"":""<em>No, he didn't see the murder.</em>""}",survey-multi-choice,10,95657,0.0-9.0,NA,NA,[0],NA,78db6136-1468-4c5c-a348-aff0390e7e2b,2024-08-08 14:18:17 CEST
11945,"{""<b>William:</b> <em> The manager reported Ann, who stole the money.</em><br><br><b>Nina:</b>"":""<em>Yes, but she didn't steal the money.</em><br><br>Please choose the response by Nina that sounds best to you.""}",survey-multi-choice,11,107605,0.0-10.0,NA,NA,[0],NA,78db6136-1468-4c5c-a348-aff0390e7e2b,2024-08-08 14:18:17 CEST
10423,"{""P0_Q0"":null,""age"":""47"",""gender"":""male"",""language"":""yes"",""amE"":""yes"",""comments"":""""}",survey,12,118135,0.0-11.0,NA,NA,NA,[],78db6136-1468-4c5c-a348-aff0390e7e2b,2024-08-08 14:18:17 CEST
15245,"{""Q0"":""Barbara""}",survey-text,0,15260,0.0-0.0-0.0,TRUE,NA,NA,NA,105ea499-4929-482d-ae97-8b14ea4b2808,2024-08-08 14:19:27 CEST
2812,0,html-button-response,1,18074,0.0-0.0-3.0-0.0,NA,<p style='text-align:left'><b> Correct response! You are a human :) </b><br><br></p>,NA,NA,105ea499-4929-482d-ae97-8b14ea4b2808,2024-08-08 14:19:27 CEST
15582,0,html-button-response,2,33657,0.0-1.0,NA,"<style>.jsPsych-servey-multi-choice-button {border-radius: 50%;               background-color: white;               border: 0.1px solid #000000;               box-shadow: none;               width: 14px;               height: 14px;               margin-bottom: 5px;               margin-top: 2px;               margin-right: 9px;               color: darked;  }               </style>  <h3>Instructions</h3>  <p style='text-align:left'>In this experiment, you will read nine statements by a speaker, as in the example below, where Candy makes a statement. You will then read three possible responses, here by Lenny.</p>  <p style='text-align:left'> <b>Candy</b>: <i>Jens thinks that it is going to rain tomorrow. </i> <br> <b>Lenny</b>: <br> <button class='jsPsych-servey-multi-choice-button' disabled></button>1.<i> No, it is not going to rain tomorrow. </i> <br> <button class='jsPsych-servey-multi-choice-button' disabled></button>2. <i> Yes, and it is not going to rain tomorrow.</i> <br> <button class='jsPsych-servey-multi-choice-button' disabled></button>3.<i> Yes, but it is not going to rain tomorrow.</i></p>  <p style='text-align:left'>We ask you to choose the response that sounds best to you by selecting the button in front of the response.</p>  <p style='text-align:left'>This experiment will take around 2 minutes, and you will be paid 40 cents.</p>  <p style='text-align:left' font size=""1"">By clicking on the button below, you agree to participate in this experiment, which is conducted by researchers at the University of Stuttgart. You may withdraw from this experiment at any time. The data collected will be anonymous and confidential. If you have any questions, you may contact the requester through Prolific's platform, or directly at st180735@stud.uni-stuttgart.de.</p>",NA,NA,105ea499-4929-482d-ae97-8b14ea4b2808,2024-08-08 14:19:27 CEST
16945,"{""<b>Vincent:</b> <em> David confessed that Ann stole the money.</em><br><br><b>Nora:</b>"":""<em>No, she didn't steal the money.</em><br><br>Please choose the response by Nora that sounds best to you.""}",survey-multi-choice,3,50607,0.0-2.0,NA,NA,[0],NA,105ea499-4929-482d-ae97-8b14ea4b2808,2024-08-08 14:19:27 CEST
21077,"{""<b>Steven:</b> <em> Ann criticized Raul, who cheated on his wife.</em><br><br><b>Nina:</b>"":""<em>Yes, but he didn't cheat on his wife.</em>""}",survey-multi-choice,4,71687,0.0-3.0,NA,NA,[0],NA,105ea499-4929-482d-ae97-8b14ea4b2808,2024-08-08 14:19:27 CEST
11742,"{""<b>Robert:</b><em> Betsy has a cat. </em><br><br><b>Maximilian:</b>"":""<em>Yes, and she loves it so much.</em><br> <br> Please choose the response by Maximilian that sounds best to you.""}",survey-multi-choice,5,83433,0.0-4.0,NA,NA,[0],NA,105ea499-4929-482d-ae97-8b14ea4b2808,2024-08-08 14:19:27 CEST
9994,"{""<b>Dawn:</b> <em> Linda discovered that Danny ate the last cupcake.</em><br><br><b>Isabel:</b>"":""<em>No, he didn't eat the last cupcake.</em>""}",survey-multi-choice,6,93431,0.0-5.0,NA,NA,[0],NA,105ea499-4929-482d-ae97-8b14ea4b2808,2024-08-08 14:19:27 CEST
10531,"{""<b>Bob:</b> <em> Sophia knows that Jack saw the murder.</em><br><br><b>Oliver:</b>"":""<em>No, he didn't see the murder.</em><br><br>Please choose the response by Oliver that sounds best to you.""}",survey-multi-choice,7,103966,0.0-6.0,NA,NA,[0],NA,105ea499-4929-482d-ae97-8b14ea4b2808,2024-08-08 14:19:27 CEST
7652,"{""<b>Mary:</b><em> Arthur took a French course.</em><br><br><b>Lily:</b>"":""<em>No, he didn't take a French course.</em><br> <br> Please choose the response by Lily that sounds best to you.""}",survey-multi-choice,8,111621,0.0-7.0,NA,NA,[0],NA,105ea499-4929-482d-ae97-8b14ea4b2808,2024-08-08 14:19:27 CEST
17290,"{""<b>Ken:</b> <em> Patricia is right that Dustin lost his key.</em><br><br><b>William:</b>"":""<em>No, he didn't lose his key.</em>""}",survey-multi-choice,9,128915,0.0-8.0,NA,NA,[0],NA,105ea499-4929-482d-ae97-8b14ea4b2808,2024-08-08 14:19:27 CEST
6918,"{""<b>Clare:</b> <em> Lucy, who broke the plate, apologized.</em><br><br><b>Alice:</b>"":""<em>Yes, but she didn't break the plate.</em>""}",survey-multi-choice,10,135836,0.0-9.0,NA,NA,[0],NA,105ea499-4929-482d-ae97-8b14ea4b2808,2024-08-08 14:19:27 CEST
6836,"{""<b>Frank:</b> <em> Mia confirmed that Greg bought a new car.</em><br><br><b>Leo:</b>"":""<em>No, he didn't buy a new car.</em>""}",survey-multi-choice,11,142675,0.0-10.0,NA,NA,[0],NA,105ea499-4929-482d-ae97-8b14ea4b2808,2024-08-08 14:19:27 CEST
13286,"{""P0_Q0"":null,""age"":""50"",""gender"":""female"",""language"":""yes"",""amE"":""yes"",""comments"":""""}",survey,12,156001,0.0-11.0,NA,NA,NA,[],105ea499-4929-482d-ae97-8b14ea4b2808,2024-08-08 14:19:27 CEST
8838,"{""Q0"":""Jessica""}",survey-text,0,8851,0.0-0.0-0.0,TRUE,NA,NA,NA,3aa6a065-410c-4d11-a6f7-bec91dd9234a,2024-08-08 14:21:32 CEST
1230,0,html-button-response,1,10082,0.0-0.0-3.0-0.0,NA,<p style='text-align:left'><b> Correct response! You are a human :) </b><br><br></p>,NA,NA,3aa6a065-410c-4d11-a6f7-bec91dd9234a,2024-08-08 14:21:32 CEST
27255,0,html-button-response,2,37338,0.0-1.0,NA,"<style>.jsPsych-servey-multi-choice-button {border-radius: 50%;               background-color: white;               border: 0.1px solid #000000;               box-shadow: none;               width: 14px;               height: 14px;               margin-bottom: 5px;               margin-top: 2px;               margin-right: 9px;               color: darked;  }               </style>  <h3>Instructions</h3>  <p style='text-align:left'>In this experiment, you will read nine statements by a speaker, as in the example below, where Candy makes a statement. You will then read three possible responses, here by Lenny.</p>  <p style='text-align:left'> <b>Candy</b>: <i>Jens thinks that it is going to rain tomorrow. </i> <br> <b>Lenny</b>: <br> <button class='jsPsych-servey-multi-choice-button' disabled></button>1.<i> No, it is not going to rain tomorrow. </i> <br> <button class='jsPsych-servey-multi-choice-button' disabled></button>2. <i> Yes, and it is not going to rain tomorrow.</i> <br> <button class='jsPsych-servey-multi-choice-button' disabled></button>3.<i> Yes, but it is not going to rain tomorrow.</i></p>  <p style='text-align:left'>We ask you to choose the response that sounds best to you by selecting the button in front of the response.</p>  <p style='text-align:left'>This experiment will take around 2 minutes, and you will be paid 40 cents.</p>  <p style='text-align:left' font size=""1"">By clicking on the button below, you agree to participate in this experiment, which is conducted by researchers at the University of Stuttgart. You may withdraw from this experiment at any time. The data collected will be anonymous and confidential. If you have any questions, you may contact the requester through Prolific's platform, or directly at st180735@stud.uni-stuttgart.de.</p>",NA,NA,3aa6a065-410c-4d11-a6f7-bec91dd9234a,2024-08-08 14:21:32 CEST
5350,"{""<b>William:</b> <em> Patricia discovered that Dustin lost his key.</em><br><br><b>Charlotte:</b>"":""<em>No, he didn't lose his key.</em>""}",survey-multi-choice,3,42696,0.0-2.0,NA,NA,[0],NA,3aa6a065-410c-4d11-a6f7-bec91dd9234a,2024-08-08 14:21:32 CEST
15015,"{""<b>Leo:</b> <em> Linda confessed that Danny ate the last cupcake.</em><br><br><b>Noah:</b>"":""<em>Yes, but he didn't eat the last cupcake.</em>""}",survey-multi-choice,4,57712,0.0-3.0,NA,NA,[0],NA,3aa6a065-410c-4d11-a6f7-bec91dd9234a,2024-08-08 14:21:32 CEST
9165,"{""<b>Mary:</b><em> Arthur took a French course.</em><br><br><b>Lily:</b>"":""<em>No, he didn't take a French course.</em><br> <br> Please choose the response by Lily that sounds best to you.""}",survey-multi-choice,5,66879,0.0-4.0,NA,NA,[0],NA,3aa6a065-410c-4d11-a6f7-bec91dd9234a,2024-08-08 14:21:32 CEST
13495,"{""<b>Isabel:</b> <em> The neighbor envies Greg, who bought a new car.</em><br><br><b>Vincent:</b>"":""<em>Yes, but he didn't buy a new car.</em><br><br>Please choose the response by Vincent that sounds best to you.""}",survey-multi-choice,6,80376,0.0-5.0,NA,NA,[0],NA,3aa6a065-410c-4d11-a6f7-bec91dd9234a,2024-08-08 14:21:32 CEST
8518,"{""<b>Grace:</b> <em> Lucy, who broke the plate, apologized.</em><br><br><b>Steven:</b>"":""<em>Yes, but she didn't break the plate.</em><br><br>Please choose the response by Steven that sounds best to you.""}",survey-multi-choice,7,88896,0.0-6.0,NA,NA,[0],NA,3aa6a065-410c-4d11-a6f7-bec91dd9234a,2024-08-08 14:21:32 CEST
6341,"{""<b>Frank:</b> <em> Emma knows that Raul cheated on his wife.</em><br><br><b>Nina:</b>"":""<em>Yes, but he didn't cheat on his wife.</em><br><br>Please choose the response by Nina that sounds best to you.""}",survey-multi-choice,8,95240,0.0-7.0,NA,NA,[0],NA,3aa6a065-410c-4d11-a6f7-bec91dd9234a,2024-08-08 14:21:32 CEST
4830,"{""<b>Robert:</b><em> Betsy has a cat. </em><br><br><b>Maximilian:</b>"":""<em>Yes, and she loves it so much.</em><br> <br> Please choose the response by Maximilian that sounds best to you.""}",survey-multi-choice,9,100080,0.0-8.0,NA,NA,[0],NA,3aa6a065-410c-4d11-a6f7-bec91dd9234a,2024-08-08 14:21:32 CEST
11111,"{""<b>Oliver:</b> <em> David is right that Ann stole the money.</em><br><br><b>Chloe:</b>"":""<em>No, she didn't steal the money.</em>""}",survey-multi-choice,10,111193,0.0-9.0,NA,NA,[0],NA,3aa6a065-410c-4d11-a6f7-bec91dd9234a,2024-08-08 14:21:32 CEST
12222,"{""<b>Alice:</b> <em> Sophia confirmed that Jack saw the murder.</em><br><br><b>Nora:</b>"":""<em>Yes, but he didn't see the murder.</em>""}",survey-multi-choice,11,123417,0.0-10.0,NA,NA,[0],NA,3aa6a065-410c-4d11-a6f7-bec91dd9234a,2024-08-08 14:21:32 CEST
8784,"{""P0_Q0"":null,""age"":""32"",""gender"":""male"",""language"":""yes"",""amE"":""yes"",""comments"":""""}",survey,12,132242,0.0-11.0,NA,NA,NA,[],3aa6a065-410c-4d11-a6f7-bec91dd9234a,2024-08-08 14:21:32 CEST
14135,"{""Q0"":""Jessica""}",survey-text,0,14144,0.0-0.0-0.0,TRUE,NA,NA,NA,22c88f95-4d6d-4c23-b4b2-e10459b48e9c,2024-08-08 14:24:00 CEST
2083,0,html-button-response,1,16228,0.0-0.0-3.0-0.0,NA,<p style='text-align:left'><b> Correct response! You are a human :) </b><br><br></p>,NA,NA,22c88f95-4d6d-4c23-b4b2-e10459b48e9c,2024-08-08 14:24:00 CEST
3315,0,html-button-response,2,19544,0.0-1.0,NA,"<style>.jsPsych-servey-multi-choice-button {border-radius: 50%;               background-color: white;               border: 0.1px solid #000000;               box-shadow: none;               width: 14px;               height: 14px;               margin-bottom: 5px;               margin-top: 2px;               margin-right: 9px;               color: darked;  }               </style>  <h3>Instructions</h3>  <p style='text-align:left'>In this experiment, you will read nine statements by a speaker, as in the example below, where Candy makes a statement. You will then read three possible responses, here by Lenny.</p>  <p style='text-align:left'> <b>Candy</b>: <i>Jens thinks that it is going to rain tomorrow. </i> <br> <b>Lenny</b>: <br> <button class='jsPsych-servey-multi-choice-button' disabled></button>1.<i> No, it is not going to rain tomorrow. </i> <br> <button class='jsPsych-servey-multi-choice-button' disabled></button>2. <i> Yes, and it is not going to rain tomorrow.</i> <br> <button class='jsPsych-servey-multi-choice-button' disabled></button>3.<i> Yes, but it is not going to rain tomorrow.</i></p>  <p style='text-align:left'>We ask you to choose the response that sounds best to you by selecting the button in front of the response.</p>  <p style='text-align:left'>This experiment will take around 2 minutes, and you will be paid 40 cents.</p>  <p style='text-align:left' font size=""1"">By clicking on the button below, you agree to participate in this experiment, which is conducted by researchers at the University of Stuttgart. You may withdraw from this experiment at any time. The data collected will be anonymous and confidential. If you have any questions, you may contact the requester through Prolific's platform, or directly at st180735@stud.uni-stuttgart.de.</p>",NA,NA,22c88f95-4d6d-4c23-b4b2-e10459b48e9c,2024-08-08 14:24:00 CEST
12103,"{""<b>Robert:</b><em> Betsy has a cat. </em><br><br><b>Maximilian:</b>"":""<em>Yes, and she loves it so much.</em><br> <br> Please choose the response by Maximilian that sounds best to you.""}",survey-multi-choice,3,31648,0.0-2.0,NA,NA,[0],NA,22c88f95-4d6d-4c23-b4b2-e10459b48e9c,2024-08-08 14:24:00 CEST
14339,"{""<b>Vincent:</b> <em> Emma is right that Raul cheated on his wife.</em><br><br><b>Dawn:</b>"":""<em>No, he didn't cheat on his wife.</em><br><br>Please choose the response by Dawn that sounds best to you.""}",survey-multi-choice,4,45988,0.0-3.0,NA,NA,[0],NA,22c88f95-4d6d-4c23-b4b2-e10459b48e9c,2024-08-08 14:24:00 CEST
16067,"{""<b>Mary:</b><em> Arthur took a French course.</em><br><br><b>Lily:</b>"":""<em>Yes, but Lisa loves cats.</em>""}",survey-multi-choice,5,62056,0.0-4.0,NA,NA,[0],NA,22c88f95-4d6d-4c23-b4b2-e10459b48e9c,2024-08-08 14:24:00 CEST
7131,"{""<b>Chloe:</b> <em> Patricia knows that Dustin lost his key.</em><br><br><b>Nora:</b>"":""<em>Yes, and he didn't lose his key.</em>""}",survey-multi-choice,6,69188,0.0-5.0,NA,NA,[0],NA,22c88f95-4d6d-4c23-b4b2-e10459b48e9c,2024-08-08 14:24:00 CEST
5611,"{""<b>Isabel:</b> <em> Tony discovered that Lucy broke the plate.</em><br><br><b>Charlie:</b>"":""<em>No, she didn't break the plate.</em><br><br>Please choose the response by Charlie that sounds best to you.""}",survey-multi-choice,7,74800,0.0-6.0,NA,NA,[0],NA,22c88f95-4d6d-4c23-b4b2-e10459b48e9c,2024-08-08 14:24:00 CEST
4239,"{""<b>Nina:</b> <em> David confessed that Ann stole the money.</em><br><br><b>Grace:</b>"":""<em>No, she didn't steal the money.</em>""}",survey-multi-choice,8,79041,0.0-7.0,NA,NA,[0],NA,22c88f95-4d6d-4c23-b4b2-e10459b48e9c,2024-08-08 14:24:00 CEST
7763,"{""<b>Oliver:</b> <em> Danny, who ate the last cupcake, has a sweet tooth.</em><br><br><b>William:</b>"":""<em>Yes, but he didn't eat the last cupcake.</em>""}",survey-multi-choice,9,86805,0.0-8.0,NA,NA,[0],NA,22c88f95-4d6d-4c23-b4b2-e10459b48e9c,2024-08-08 14:24:00 CEST
5011,"{""<b>Frank:</b> <em> The police found Jack, who saw the murder.</em><br><br><b>Charlotte:</b>"":""<em>No, he didn't see the murder.</em><br><br>Please choose the response by Charlotte that sounds best to you.""}",survey-multi-choice,10,91817,0.0-9.0,NA,NA,[0],NA,22c88f95-4d6d-4c23-b4b2-e10459b48e9c,2024-08-08 14:24:00 CEST
4867,"{""<b>Steven:</b> <em> Mia confirmed that Greg bought a new car.</em><br><br><b>Alice:</b>"":""<em>Yes, and he didn't buy a new car.</em><br><br>Please choose the response by Alice that sounds best to you.""}",survey-multi-choice,11,96684,0.0-10.0,NA,NA,[0],NA,22c88f95-4d6d-4c23-b4b2-e10459b48e9c,2024-08-08 14:24:00 CEST
9894,"{""P0_Q0"":null,""age"":""33"",""gender"":""female"",""language"":""yes"",""amE"":""yes"",""comments"":""""}",survey,12,106606,0.0-11.0,NA,NA,NA,[],22c88f95-4d6d-4c23-b4b2-e10459b48e9c,2024-08-08 14:24:00 CEST
6968,"{""Q0"":""linda""}",survey-text,0,6976,0.0-0.0-0.0,TRUE,NA,NA,NA,1fe1e6f4-dd71-4f7c-b270-1475e039140d,2024-08-08 14:24:45 CEST
1231,0,html-button-response,1,8208,0.0-0.0-3.0-0.0,NA,<p style='text-align:left'><b> Correct response! You are a human :) </b><br><br></p>,NA,NA,1fe1e6f4-dd71-4f7c-b270-1475e039140d,2024-08-08 14:24:45 CEST
14666,0,html-button-response,2,22875,0.0-1.0,NA,"<style>.jsPsych-servey-multi-choice-button {border-radius: 50%;               background-color: white;               border: 0.1px solid #000000;               box-shadow: none;               width: 14px;               height: 14px;               margin-bottom: 5px;               margin-top: 2px;               margin-right: 9px;               color: darked;  }               </style>  <h3>Instructions</h3>  <p style='text-align:left'>In this experiment, you will read nine statements by a speaker, as in the example below, where Candy makes a statement. You will then read three possible responses, here by Lenny.</p>  <p style='text-align:left'> <b>Candy</b>: <i>Jens thinks that it is going to rain tomorrow. </i> <br> <b>Lenny</b>: <br> <button class='jsPsych-servey-multi-choice-button' disabled></button>1.<i> No, it is not going to rain tomorrow. </i> <br> <button class='jsPsych-servey-multi-choice-button' disabled></button>2. <i> Yes, and it is not going to rain tomorrow.</i> <br> <button class='jsPsych-servey-multi-choice-button' disabled></button>3.<i> Yes, but it is not going to rain tomorrow.</i></p>  <p style='text-align:left'>We ask you to choose the response that sounds best to you by selecting the button in front of the response.</p>  <p style='text-align:left'>This experiment will take around 2 minutes, and you will be paid 40 cents.</p>  <p style='text-align:left' font size=""1"">By clicking on the button below, you agree to participate in this experiment, which is conducted by researchers at the University of Stuttgart. You may withdraw from this experiment at any time. The data collected will be anonymous and confidential. If you have any questions, you may contact the requester through Prolific's platform, or directly at st180735@stud.uni-stuttgart.de.</p>",NA,NA,1fe1e6f4-dd71-4f7c-b270-1475e039140d,2024-08-08 14:24:45 CEST
5230,"{""<b>Steven:</b> <em> Sophia is right that Jack saw the murder.</em><br><br><b>Nora:</b>"":""<em>Yes, and he didn't see the murder.</em><br><br>Please choose the response by Nora that sounds best to you.""}",survey-multi-choice,3,28107,0.0-2.0,NA,NA,[0],NA,1fe1e6f4-dd71-4f7c-b270-1475e039140d,2024-08-08 14:24:45 CEST
6574,"{""<b>Noah:</b> <em> Mia discovered that Greg bought a new car.</em><br><br><b>Vincent:</b>"":""<em>Yes, but he didn't buy a new car.</em><br><br>Please choose the response by Vincent that sounds best to you.""}",survey-multi-choice,4,34682,0.0-3.0,NA,NA,[0],NA,1fe1e6f4-dd71-4f7c-b270-1475e039140d,2024-08-08 14:24:45 CEST
4086,"{""<b>Isabel:</b> <em> Emma confirmed that Raul cheated on his wife.</em><br><br><b>Grace:</b>"":""<em>No, he didn't cheat on his wife.</em>""}",survey-multi-choice,5,38770,0.0-4.0,NA,NA,[0],NA,1fe1e6f4-dd71-4f7c-b270-1475e039140d,2024-08-08 14:24:45 CEST
3299,"{""<b>Oliver:</b> <em> David confessed that Ann stole the money.</em><br><br><b>Chloe:</b>"":""<em>No, she didn't steal the money.</em>""}",survey-multi-choice,6,42070,0.0-5.0,NA,NA,[0],NA,1fe1e6f4-dd71-4f7c-b270-1475e039140d,2024-08-08 14:24:45 CEST
4018,"{""<b>Bob:</b> <em> Lucy, who broke the plate, apologized.</em><br><br><b>Alice:</b>"":""<em>No, she didn't break the plate.</em>""}",survey-multi-choice,7,46089,0.0-6.0,NA,NA,[0],NA,1fe1e6f4-dd71-4f7c-b270-1475e039140d,2024-08-08 14:24:45 CEST
3431,"{""<b>Robert:</b><em> Betsy has a cat. </em><br><br><b>Maximilian:</b>"":""<em>Yes, and she loves it so much.</em><br> <br> Please choose the response by Maximilian that sounds best to you.""}",survey-multi-choice,8,49521,0.0-7.0,NA,NA,[0],NA,1fe1e6f4-dd71-4f7c-b270-1475e039140d,2024-08-08 14:24:45 CEST
3274,"{""<b>Dawn:</b> <em> Linda knows that Danny ate the last cupcake.</em><br><br><b>Clare:</b>"":""<em>No, he didn't eat the last cupcake.</em>""}",survey-multi-choice,9,52797,0.0-8.0,NA,NA,[0],NA,1fe1e6f4-dd71-4f7c-b270-1475e039140d,2024-08-08 14:24:45 CEST
3826,"{""<b>Mary:</b><em> Arthur took a French course.</em><br><br><b>Lily:</b>"":""<em>No, he didn't take a French course.</em><br> <br> Please choose the response by Lily that sounds best to you.""}",survey-multi-choice,10,56625,0.0-9.0,NA,NA,[0],NA,1fe1e6f4-dd71-4f7c-b270-1475e039140d,2024-08-08 14:24:45 CEST
5254,"{""<b>Nina:</b> <em> The boss scolded Dustin, who lost his key.</em><br><br><b>Charlotte:</b>"":""<em>No, he didn't lose his key.</em><br><br>Please choose the response by Charlotte that sounds best to you.""}",survey-multi-choice,11,61881,0.0-10.0,NA,NA,[0],NA,1fe1e6f4-dd71-4f7c-b270-1475e039140d,2024-08-08 14:24:45 CEST
7575,"{""P0_Q0"":null,""age"":""22"",""gender"":""female"",""language"":""yes"",""amE"":""yes"",""comments"":""""}",survey,12,69487,0.0-11.0,NA,NA,NA,[],1fe1e6f4-dd71-4f7c-b270-1475e039140d,2024-08-08 14:24:45 CEST
15225,"{""Q0"":""Elizabeth""}",survey-text,0,15245,0.0-0.0-0.0,TRUE,NA,NA,NA,d0f28dd8-972d-4f5f-8c4b-a2f80123aaae,2024-08-08 14:25:37 CEST
1862,0,html-button-response,1,17109,0.0-0.0-3.0-0.0,NA,<p style='text-align:left'><b> Correct response! You are a human :) </b><br><br></p>,NA,NA,d0f28dd8-972d-4f5f-8c4b-a2f80123aaae,2024-08-08 14:25:37 CEST
123518,0,html-button-response,2,140628,0.0-1.0,NA,"<style>.jsPsych-servey-multi-choice-button {border-radius: 50%;               background-color: white;               border: 0.1px solid #000000;               box-shadow: none;               width: 14px;               height: 14px;               margin-bottom: 5px;               margin-top: 2px;               margin-right: 9px;               color: darked;  }               </style>  <h3>Instructions</h3>  <p style='text-align:left'>In this experiment, you will read nine statements by a speaker, as in the example below, where Candy makes a statement. You will then read three possible responses, here by Lenny.</p>  <p style='text-align:left'> <b>Candy</b>: <i>Jens thinks that it is going to rain tomorrow. </i> <br> <b>Lenny</b>: <br> <button class='jsPsych-servey-multi-choice-button' disabled></button>1.<i> No, it is not going to rain tomorrow. </i> <br> <button class='jsPsych-servey-multi-choice-button' disabled></button>2. <i> Yes, and it is not going to rain tomorrow.</i> <br> <button class='jsPsych-servey-multi-choice-button' disabled></button>3.<i> Yes, but it is not going to rain tomorrow.</i></p>  <p style='text-align:left'>We ask you to choose the response that sounds best to you by selecting the button in front of the response.</p>  <p style='text-align:left'>This experiment will take around 2 minutes, and you will be paid 40 cents.</p>  <p style='text-align:left' font size=""1"">By clicking on the button below, you agree to participate in this experiment, which is conducted by researchers at the University of Stuttgart. You may withdraw from this experiment at any time. The data collected will be anonymous and confidential. If you have any questions, you may contact the requester through Prolific's platform, or directly at st180735@stud.uni-stuttgart.de.</p>",NA,NA,d0f28dd8-972d-4f5f-8c4b-a2f80123aaae,2024-08-08 14:25:37 CEST
14238,"{""<b>Ken:</b> <em> Jack, who saw the murder, ran away.</em><br><br><b>Nina:</b>"":""<em>Yes, and he didn't see the murder.</em>""}",survey-multi-choice,3,154868,0.0-2.0,NA,NA,[0],NA,d0f28dd8-972d-4f5f-8c4b-a2f80123aaae,2024-08-08 14:25:37 CEST
7276,"{""<b>Dawn:</b> <em> Patricia confessed that Dustin lost his key.</em><br><br><b>Charlotte:</b>"":""<em>No, he didn't lose his key.</em>""}",survey-multi-choice,4,162147,0.0-3.0,NA,NA,[0],NA,d0f28dd8-972d-4f5f-8c4b-a2f80123aaae,2024-08-08 14:25:37 CEST
5190,"{""<b>Noah:</b> <em> Tony is right that Lucy broke the plate.</em><br><br><b>Leo:</b>"":""<em>No, she didn't break the plate.</em>""}",survey-multi-choice,5,167339,0.0-4.0,NA,NA,[0],NA,d0f28dd8-972d-4f5f-8c4b-a2f80123aaae,2024-08-08 14:25:37 CEST
2493,"{""<b>Mary:</b><em> Arthur took a French course.</em><br><br><b>Lily:</b>"":""<em>Yes, but Lisa loves cats.</em>""}",survey-multi-choice,6,169835,0.0-5.0,NA,NA,[0],NA,d0f28dd8-972d-4f5f-8c4b-a2f80123aaae,2024-08-08 14:25:37 CEST
12326,"{""<b>Chloe:</b> <em> Linda discovered that Danny ate the last cupcake.</em><br><br><b>Steven:</b>"":""<em>Yes, but he didn't eat the last cupcake.</em>""}",survey-multi-choice,7,182163,0.0-6.0,NA,NA,[0],NA,d0f28dd8-972d-4f5f-8c4b-a2f80123aaae,2024-08-08 14:25:37 CEST
2421,"{""<b>Charlie:</b> <em> David confirmed that Ann stole the money.</em><br><br><b>Vincent:</b>"":""<em>Yes, and she didn't steal the money.</em>""}",survey-multi-choice,8,184587,0.0-7.0,NA,NA,[0],NA,d0f28dd8-972d-4f5f-8c4b-a2f80123aaae,2024-08-08 14:25:37 CEST
1574,"{""<b>Oliver:</b> <em> The neighbor envies Greg, who bought a new car.</em><br><br><b>Frank:</b>"":""<em>Yes, but he didn't buy a new car.</em>""}",survey-multi-choice,9,186163,0.0-8.0,NA,NA,[0],NA,d0f28dd8-972d-4f5f-8c4b-a2f80123aaae,2024-08-08 14:25:37 CEST
3126,"{""<b>Nora:</b> <em> Emma knows that Raul cheated on his wife.</em><br><br><b>Bob:</b>"":""<em>Yes, and he didn't cheat on his wife.</em>""}",survey-multi-choice,10,189291,0.0-9.0,NA,NA,[0],NA,d0f28dd8-972d-4f5f-8c4b-a2f80123aaae,2024-08-08 14:25:37 CEST
2502,"{""<b>Robert:</b><em> Betsy has a cat. </em><br><br><b>Maximilian:</b>"":""<em>Yes, but she is good at math.</em>""}",survey-multi-choice,11,191795,0.0-10.0,NA,NA,[0],NA,d0f28dd8-972d-4f5f-8c4b-a2f80123aaae,2024-08-08 14:25:37 CEST
16980,"{""P0_Q0"":null,""age"":""41"",""gender"":""male"",""language"":""yes"",""amE"":""yes"",""comments"":""""}",survey,12,208833,0.0-11.0,NA,NA,NA,[],d0f28dd8-972d-4f5f-8c4b-a2f80123aaae,2024-08-08 14:25:37 CEST
12827,"{""Q0"":""Barbara""}",survey-text,0,12853,0.0-0.0-0.0,TRUE,NA,NA,NA,dd25b5ef-2cdf-453f-8a1a-846cdef05bfe,2024-08-08 14:27:23 CEST
1831,0,html-button-response,1,14685,0.0-0.0-3.0-0.0,NA,<p style='text-align:left'><b> Correct response! You are a human :) </b><br><br></p>,NA,NA,dd25b5ef-2cdf-453f-8a1a-846cdef05bfe,2024-08-08 14:27:23 CEST
33687,0,html-button-response,2,48372,0.0-1.0,NA,"<style>.jsPsych-servey-multi-choice-button {border-radius: 50%;               background-color: white;               border: 0.1px solid #000000;               box-shadow: none;               width: 14px;               height: 14px;               margin-bottom: 5px;               margin-top: 2px;               margin-right: 9px;               color: darked;  }               </style>  <h3>Instructions</h3>  <p style='text-align:left'>In this experiment, you will read nine statements by a speaker, as in the example below, where Candy makes a statement. You will then read three possible responses, here by Lenny.</p>  <p style='text-align:left'> <b>Candy</b>: <i>Jens thinks that it is going to rain tomorrow. </i> <br> <b>Lenny</b>: <br> <button class='jsPsych-servey-multi-choice-button' disabled></button>1.<i> No, it is not going to rain tomorrow. </i> <br> <button class='jsPsych-servey-multi-choice-button' disabled></button>2. <i> Yes, and it is not going to rain tomorrow.</i> <br> <button class='jsPsych-servey-multi-choice-button' disabled></button>3.<i> Yes, but it is not going to rain tomorrow.</i></p>  <p style='text-align:left'>We ask you to choose the response that sounds best to you by selecting the button in front of the response.</p>  <p style='text-align:left'>This experiment will take around 2 minutes, and you will be paid 40 cents.</p>  <p style='text-align:left' font size=""1"">By clicking on the button below, you agree to participate in this experiment, which is conducted by researchers at the University of Stuttgart. You may withdraw from this experiment at any time. The data collected will be anonymous and confidential. If you have any questions, you may contact the requester through Prolific's platform, or directly at st180735@stud.uni-stuttgart.de.</p>",NA,NA,dd25b5ef-2cdf-453f-8a1a-846cdef05bfe,2024-08-08 14:27:23 CEST
8334,"{""<b>Robert:</b><em> Betsy has a cat. </em><br><br><b>Maximilian:</b>"":""<em>Yes, and she loves it so much.</em><br> <br> Please choose the response by Maximilian that sounds best to you.""}",survey-multi-choice,3,56709,0.0-2.0,NA,NA,[0],NA,dd25b5ef-2cdf-453f-8a1a-846cdef05bfe,2024-08-08 14:27:23 CEST
17806,"{""<b>Mary:</b><em> Arthur took a French course.</em><br><br><b>Lily:</b>"":""<em>No, he didn't take a French course.</em><br> <br> Please choose the response by Lily that sounds best to you.""}",survey-multi-choice,4,74516,0.0-3.0,NA,NA,[0],NA,dd25b5ef-2cdf-453f-8a1a-846cdef05bfe,2024-08-08 14:27:23 CEST
8357,"{""<b>Frank:</b> <em> Linda knows that Danny ate the last cupcake.</em><br><br><b>Chloe:</b>"":""<em>No, he didn't eat the last cupcake.</em>""}",survey-multi-choice,5,82876,0.0-4.0,NA,NA,[0],NA,dd25b5ef-2cdf-453f-8a1a-846cdef05bfe,2024-08-08 14:27:23 CEST
7638,"{""<b>William:</b> <em> David confirmed that Ann stole the money.</em><br><br><b>Dawn:</b>"":""<em>No, she didn't steal the money.</em>""}",survey-multi-choice,6,90517,0.0-5.0,NA,NA,[0],NA,dd25b5ef-2cdf-453f-8a1a-846cdef05bfe,2024-08-08 14:27:23 CEST
17270,"{""<b>Leo:</b> <em> Ann criticized Raul, who cheated on his wife.</em><br><br><b>Nina:</b>"":""<em>Yes, but he didn't cheat on his wife.</em><br><br>Please choose the response by Nina that sounds best to you.""}",survey-multi-choice,7,107788,0.0-6.0,NA,NA,[0],NA,dd25b5ef-2cdf-453f-8a1a-846cdef05bfe,2024-08-08 14:27:23 CEST
24174,"{""<b>Bob:</b> <em> Tony confessed that Lucy broke the plate.</em><br><br><b>Charlotte:</b>"":""<em>Yes, but she didn't break the plate.</em>""}",survey-multi-choice,8,131965,0.0-7.0,NA,NA,[0],NA,dd25b5ef-2cdf-453f-8a1a-846cdef05bfe,2024-08-08 14:27:23 CEST
9606,"{""<b>Isabel:</b> <em> Dustin, who lost his key, feels upset.</em><br><br><b>Nora:</b>"":""<em>No, he didn't lose his key.</em><br><br>Please choose the response by Nora that sounds best to you.""}",survey-multi-choice,9,141572,0.0-8.0,NA,NA,[0],NA,dd25b5ef-2cdf-453f-8a1a-846cdef05bfe,2024-08-08 14:27:23 CEST
24182,"{""<b>Steven:</b> <em> Sophia discovered that Jack saw the murder.</em><br><br><b>Noah:</b>"":""<em>Yes, but he didn't see the murder.</em>""}",survey-multi-choice,10,165756,0.0-9.0,NA,NA,[0],NA,dd25b5ef-2cdf-453f-8a1a-846cdef05bfe,2024-08-08 14:27:23 CEST
12254,"{""<b>Grace:</b> <em> Mia is right that Greg bought a new car.</em><br><br><b>Vincent:</b>"":""<em>No, he didn't buy a new car.</em>""}",survey-multi-choice,11,178012,0.0-10.0,NA,NA,[0],NA,dd25b5ef-2cdf-453f-8a1a-846cdef05bfe,2024-08-08 14:27:23 CEST
11630,"{""P0_Q0"":null,""age"":""29"",""gender"":""female"",""language"":""yes"",""amE"":""yes"",""comments"":""""}",survey,12,189694,0.0-11.0,NA,NA,NA,[],dd25b5ef-2cdf-453f-8a1a-846cdef05bfe,2024-08-08 14:27:23 CEST
8473,"{""Q0"":""Susan""}",survey-text,0,8496,0.0-0.0-0.0,TRUE,NA,NA,NA,96a94cfc-adbc-43e8-9ee4-d16307525b07,2024-08-08 14:27:40 CEST
1090,0,html-button-response,1,9588,0.0-0.0-3.0-0.0,NA,<p style='text-align:left'><b> Correct response! You are a human :) </b><br><br></p>,NA,NA,96a94cfc-adbc-43e8-9ee4-d16307525b07,2024-08-08 14:27:40 CEST
26500,0,html-button-response,2,36089,0.0-1.0,NA,"<style>.jsPsych-servey-multi-choice-button {border-radius: 50%;               background-color: white;               border: 0.1px solid #000000;               box-shadow: none;               width: 14px;               height: 14px;               margin-bottom: 5px;               margin-top: 2px;               margin-right: 9px;               color: darked;  }               </style>  <h3>Instructions</h3>  <p style='text-align:left'>In this experiment, you will read nine statements by a speaker, as in the example below, where Candy makes a statement. You will then read three possible responses, here by Lenny.</p>  <p style='text-align:left'> <b>Candy</b>: <i>Jens thinks that it is going to rain tomorrow. </i> <br> <b>Lenny</b>: <br> <button class='jsPsych-servey-multi-choice-button' disabled></button>1.<i> No, it is not going to rain tomorrow. </i> <br> <button class='jsPsych-servey-multi-choice-button' disabled></button>2. <i> Yes, and it is not going to rain tomorrow.</i> <br> <button class='jsPsych-servey-multi-choice-button' disabled></button>3.<i> Yes, but it is not going to rain tomorrow.</i></p>  <p style='text-align:left'>We ask you to choose the response that sounds best to you by selecting the button in front of the response.</p>  <p style='text-align:left'>This experiment will take around 2 minutes, and you will be paid 40 cents.</p>  <p style='text-align:left' font size=""1"">By clicking on the button below, you agree to participate in this experiment, which is conducted by researchers at the University of Stuttgart. You may withdraw from this experiment at any time. The data collected will be anonymous and confidential. If you have any questions, you may contact the requester through Prolific's platform, or directly at st180735@stud.uni-stuttgart.de.</p>",NA,NA,96a94cfc-adbc-43e8-9ee4-d16307525b07,2024-08-08 14:27:40 CEST
23592,"{""<b>Nora:</b> <em> Emma confessed that Raul cheated on his wife.</em><br><br><b>Chloe:</b>"":""<em>Yes, but he didn't cheat on his wife.</em>""}",survey-multi-choice,3,59682,0.0-2.0,NA,NA,[0],NA,96a94cfc-adbc-43e8-9ee4-d16307525b07,2024-08-08 14:27:40 CEST
11876,"{""<b>Bob:</b> <em> Linda knows that Danny ate the last cupcake.</em><br><br><b>Dawn:</b>"":""<em>No, he didn't eat the last cupcake.</em><br><br>Please choose the response by Dawn that sounds best to you.""}",survey-multi-choice,4,71560,0.0-3.0,NA,NA,[0],NA,96a94cfc-adbc-43e8-9ee4-d16307525b07,2024-08-08 14:27:40 CEST
17295,"{""<b>Oliver:</b> <em> Sophia confirmed that Jack saw the murder.</em><br><br><b>Grace:</b>"":""<em>No, he didn't see the murder.</em>""}",survey-multi-choice,5,88856,0.0-4.0,NA,NA,[0],NA,96a94cfc-adbc-43e8-9ee4-d16307525b07,2024-08-08 14:27:40 CEST
13219,"{""<b>Vincent:</b> <em> The neighbor envies Greg, who bought a new car.</em><br><br><b>Clare:</b>"":""<em>Yes, but he didn't buy a new car.</em>""}",survey-multi-choice,6,102077,0.0-5.0,NA,NA,[0],NA,96a94cfc-adbc-43e8-9ee4-d16307525b07,2024-08-08 14:27:40 CEST
6187,"{""<b>Charlotte:</b> <em> Lucy, who broke the plate, apologized.</em><br><br><b>Leo:</b>"":""<em>Yes, but she didn't break the plate.</em>""}",survey-multi-choice,7,108266,0.0-6.0,NA,NA,[0],NA,96a94cfc-adbc-43e8-9ee4-d16307525b07,2024-08-08 14:27:40 CEST
7350,"{""<b>Isabel:</b> <em> David is right that Ann stole the money.</em><br><br><b>Frank:</b>"":""<em>No, she didn't steal the money.</em>""}",survey-multi-choice,8,115616,0.0-7.0,NA,NA,[0],NA,96a94cfc-adbc-43e8-9ee4-d16307525b07,2024-08-08 14:27:40 CEST
5224,"{""<b>Mary:</b><em> Arthur took a French course.</em><br><br><b>Lily:</b>"":""<em>No, he didn't take a French course.</em><br> <br> Please choose the response by Lily that sounds best to you.""}",survey-multi-choice,9,120841,0.0-8.0,NA,NA,[0],NA,96a94cfc-adbc-43e8-9ee4-d16307525b07,2024-08-08 14:27:40 CEST
7149,"{""<b>Ken:</b> <em> Patricia discovered that Dustin lost his key.</em><br><br><b>William:</b>"":""<em>No, he didn't lose his key.</em><br><br>Please choose the response by William that sounds best to you.""}",survey-multi-choice,10,127991,0.0-9.0,NA,NA,[0],NA,96a94cfc-adbc-43e8-9ee4-d16307525b07,2024-08-08 14:27:40 CEST
5702,"{""<b>Robert:</b><em> Betsy has a cat. </em><br><br><b>Maximilian:</b>"":""<em>Yes, and she loves it so much.</em><br> <br> Please choose the response by Maximilian that sounds best to you.""}",survey-multi-choice,11,133695,0.0-10.0,NA,NA,[0],NA,96a94cfc-adbc-43e8-9ee4-d16307525b07,2024-08-08 14:27:40 CEST
14811,"{""P0_Q0"":null,""age"":""26"",""gender"":""male"",""language"":""yes"",""amE"":""yes"",""comments"":""""}",survey,12,148552,0.0-11.0,NA,NA,NA,[],96a94cfc-adbc-43e8-9ee4-d16307525b07,2024-08-08 14:27:40 CEST
11938,"{""Q0"":""Elizabeth""}",survey-text,0,11977,0.0-0.0-0.0,TRUE,NA,NA,NA,48027f4d-8d5c-4867-90f4-1af8f4394ef8,2024-08-08 14:28:25 CEST
1447,0,html-button-response,1,13428,0.0-0.0-3.0-0.0,NA,<p style='text-align:left'><b> Correct response! You are a human :) </b><br><br></p>,NA,NA,48027f4d-8d5c-4867-90f4-1af8f4394ef8,2024-08-08 14:28:25 CEST
5933,0,html-button-response,2,19363,0.0-1.0,NA,"<style>.jsPsych-servey-multi-choice-button {border-radius: 50%;               background-color: white;               border: 0.1px solid #000000;               box-shadow: none;               width: 14px;               height: 14px;               margin-bottom: 5px;               margin-top: 2px;               margin-right: 9px;               color: darked;  }               </style>  <h3>Instructions</h3>  <p style='text-align:left'>In this experiment, you will read nine statements by a speaker, as in the example below, where Candy makes a statement. You will then read three possible responses, here by Lenny.</p>  <p style='text-align:left'> <b>Candy</b>: <i>Jens thinks that it is going to rain tomorrow. </i> <br> <b>Lenny</b>: <br> <button class='jsPsych-servey-multi-choice-button' disabled></button>1.<i> No, it is not going to rain tomorrow. </i> <br> <button class='jsPsych-servey-multi-choice-button' disabled></button>2. <i> Yes, and it is not going to rain tomorrow.</i> <br> <button class='jsPsych-servey-multi-choice-button' disabled></button>3.<i> Yes, but it is not going to rain tomorrow.</i></p>  <p style='text-align:left'>We ask you to choose the response that sounds best to you by selecting the button in front of the response.</p>  <p style='text-align:left'>This experiment will take around 2 minutes, and you will be paid 40 cents.</p>  <p style='text-align:left' font size=""1"">By clicking on the button below, you agree to participate in this experiment, which is conducted by researchers at the University of Stuttgart. You may withdraw from this experiment at any time. The data collected will be anonymous and confidential. If you have any questions, you may contact the requester through Prolific's platform, or directly at st180735@stud.uni-stuttgart.de.</p>",NA,NA,48027f4d-8d5c-4867-90f4-1af8f4394ef8,2024-08-08 14:28:25 CEST
9935,"{""<b>Ken:</b> <em> Tony confirmed that Lucy broke the plate.</em><br><br><b>Steven:</b>"":""<em>No, she didn't break the plate.</em>""}",survey-multi-choice,3,29301,0.0-2.0,NA,NA,[0],NA,48027f4d-8d5c-4867-90f4-1af8f4394ef8,2024-08-08 14:28:25 CEST
7023,"{""<b>Chloe:</b> <em> Emma discovered that Raul cheated on his wife.</em><br><br><b>Grace:</b>"":""<em>No, he didn't cheat on his wife.</em>""}",survey-multi-choice,4,36327,0.0-3.0,NA,NA,[0],NA,48027f4d-8d5c-4867-90f4-1af8f4394ef8,2024-08-08 14:28:25 CEST
11016,"{""<b>Frank:</b> <em> Mia is right that Greg bought a new car.</em><br><br><b>Nora:</b>"":""<em>No, he didn't buy a new car.</em><br><br>Please choose the response by Nora that sounds best to you.""}",survey-multi-choice,5,47348,0.0-4.0,NA,NA,[0],NA,48027f4d-8d5c-4867-90f4-1af8f4394ef8,2024-08-08 14:28:25 CEST
6469,"{""<b>Robert:</b><em> Betsy has a cat. </em><br><br><b>Maximilian:</b>"":""<em>Yes, and she loves it so much.</em><br> <br> Please choose the response by Maximilian that sounds best to you.""}",survey-multi-choice,6,53819,0.0-5.0,NA,NA,[0],NA,48027f4d-8d5c-4867-90f4-1af8f4394ef8,2024-08-08 14:28:25 CEST
5372,"{""<b>Vincent:</b> <em> David confessed that Ann stole the money.</em><br><br><b>Noah:</b>"":""<em>No, she didn't steal the money.</em>""}",survey-multi-choice,7,59197,0.0-6.0,NA,NA,[0],NA,48027f4d-8d5c-4867-90f4-1af8f4394ef8,2024-08-08 14:28:25 CEST
7061,"{""<b>Alice:</b> <em> The police found Jack, who saw the murder.</em><br><br><b>Bob:</b>"":""<em>No, he didn't see the murder.</em>""}",survey-multi-choice,8,66259,0.0-7.0,NA,NA,[0],NA,48027f4d-8d5c-4867-90f4-1af8f4394ef8,2024-08-08 14:28:25 CEST
5937,"{""<b>Mary:</b><em> Arthur took a French course.</em><br><br><b>Lily:</b>"":""<em>No, he didn't take a French course.</em><br> <br> Please choose the response by Lily that sounds best to you.""}",survey-multi-choice,9,72202,0.0-8.0,NA,NA,[0],NA,48027f4d-8d5c-4867-90f4-1af8f4394ef8,2024-08-08 14:28:25 CEST
5107,"{""<b>Isabel:</b> <em> Dustin, who lost his key, feels upset.</em><br><br><b>Oliver:</b>"":""<em>No, he didn't lose his key.</em><br><br>Please choose the response by Oliver that sounds best to you.""}",survey-multi-choice,10,77315,0.0-9.0,NA,NA,[0],NA,48027f4d-8d5c-4867-90f4-1af8f4394ef8,2024-08-08 14:28:25 CEST
4881,"{""<b>Leo:</b> <em> Linda knows that Danny ate the last cupcake.</em><br><br><b>Nina:</b>"":""<em>No, he didn't eat the last cupcake.</em><br><br>Please choose the response by Nina that sounds best to you.""}",survey-multi-choice,11,82201,0.0-10.0,NA,NA,[0],NA,48027f4d-8d5c-4867-90f4-1af8f4394ef8,2024-08-08 14:28:25 CEST
19067,"{""P0_Q0"":null,""age"":""45"",""gender"":""female"",""language"":""yes"",""amE"":""yes"",""comments"":""""}",survey,12,101337,0.0-11.0,NA,NA,NA,[],48027f4d-8d5c-4867-90f4-1af8f4394ef8,2024-08-08 14:28:25 CEST
7105,"{""Q0"":""Barbara""}",survey-text,0,7119,0.0-0.0-0.0,TRUE,NA,NA,NA,ae731735-895f-48be-9be2-f41950706c60,2024-08-08 14:29:45 CEST
943,0,html-button-response,1,8066,0.0-0.0-3.0-0.0,NA,<p style='text-align:left'><b> Correct response! You are a human :) </b><br><br></p>,NA,NA,ae731735-895f-48be-9be2-f41950706c60,2024-08-08 14:29:45 CEST
19365,0,html-button-response,2,27434,0.0-1.0,NA,"<style>.jsPsych-servey-multi-choice-button {border-radius: 50%;               background-color: white;               border: 0.1px solid #000000;               box-shadow: none;               width: 14px;               height: 14px;               margin-bottom: 5px;               margin-top: 2px;               margin-right: 9px;               color: darked;  }               </style>  <h3>Instructions</h3>  <p style='text-align:left'>In this experiment, you will read nine statements by a speaker, as in the example below, where Candy makes a statement. You will then read three possible responses, here by Lenny.</p>  <p style='text-align:left'> <b>Candy</b>: <i>Jens thinks that it is going to rain tomorrow. </i> <br> <b>Lenny</b>: <br> <button class='jsPsych-servey-multi-choice-button' disabled></button>1.<i> No, it is not going to rain tomorrow. </i> <br> <button class='jsPsych-servey-multi-choice-button' disabled></button>2. <i> Yes, and it is not going to rain tomorrow.</i> <br> <button class='jsPsych-servey-multi-choice-button' disabled></button>3.<i> Yes, but it is not going to rain tomorrow.</i></p>  <p style='text-align:left'>We ask you to choose the response that sounds best to you by selecting the button in front of the response.</p>  <p style='text-align:left'>This experiment will take around 2 minutes, and you will be paid 40 cents.</p>  <p style='text-align:left' font size=""1"">By clicking on the button below, you agree to participate in this experiment, which is conducted by researchers at the University of Stuttgart. You may withdraw from this experiment at any time. The data collected will be anonymous and confidential. If you have any questions, you may contact the requester through Prolific's platform, or directly at st180735@stud.uni-stuttgart.de.</p>",NA,NA,ae731735-895f-48be-9be2-f41950706c60,2024-08-08 14:29:45 CEST
16531,"{""<b>Isabel:</b> <em> Patricia confessed that Dustin lost his key.</em><br><br><b>William:</b>"":""<em>No, he didn't lose his key.</em><br><br>Please choose the response by William that sounds best to you.""}",survey-multi-choice,3,43970,0.0-2.0,NA,NA,[0],NA,ae731735-895f-48be-9be2-f41950706c60,2024-08-08 14:29:45 CEST
6918,"{""<b>Vincent:</b> <em> Linda knows that Danny ate the last cupcake.</em><br><br><b>Steven:</b>"":""<em>No, he didn't eat the last cupcake.</em>""}",survey-multi-choice,4,50894,0.0-3.0,NA,NA,[0],NA,ae731735-895f-48be-9be2-f41950706c60,2024-08-08 14:29:45 CEST
6546,"{""<b>Oliver:</b> <em> Greg, who bought a new car, has a driver's license.</em><br><br><b>Clare:</b>"":""<em>No, he didn't buy a new car.</em>""}",survey-multi-choice,5,57446,0.0-4.0,NA,NA,[0],NA,ae731735-895f-48be-9be2-f41950706c60,2024-08-08 14:29:45 CEST
4417,"{""<b>Leo:</b> <em> David is right that Ann stole the money.</em><br><br><b>Bob:</b>"":""<em>No, she didn't steal the money.</em>""}",survey-multi-choice,6,61876,0.0-5.0,NA,NA,[0],NA,ae731735-895f-48be-9be2-f41950706c60,2024-08-08 14:29:45 CEST
14820,"{""<b>Frank:</b> <em> The chef scolded Lucy, who broke the plate.</em><br><br><b>Charlie:</b>"":""<em>Yes, but she didn't break the plate.</em>""}",survey-multi-choice,7,76711,0.0-6.0,NA,NA,[0],NA,ae731735-895f-48be-9be2-f41950706c60,2024-08-08 14:29:45 CEST
7616,"{""<b>Charlotte:</b> <em> Emma discovered that Raul cheated on his wife.</em><br><br><b>Nora:</b>"":""<em>No, he didn't cheat on his wife.</em><br><br>Please choose the response by Nora that sounds best to you.""}",survey-multi-choice,8,84339,0.0-7.0,NA,NA,[0],NA,ae731735-895f-48be-9be2-f41950706c60,2024-08-08 14:29:45 CEST
5824,"{""<b>Mary:</b><em> Arthur took a French course.</em><br><br><b>Lily:</b>"":""<em>No, he didn't take a French course.</em><br> <br> Please choose the response by Lily that sounds best to you.""}",survey-multi-choice,9,90169,0.0-8.0,NA,NA,[0],NA,ae731735-895f-48be-9be2-f41950706c60,2024-08-08 14:29:45 CEST
5252,"{""<b>Robert:</b><em> Betsy has a cat. </em><br><br><b>Maximilian:</b>"":""<em>Yes, and she loves it so much.</em><br> <br> Please choose the response by Maximilian that sounds best to you.""}",survey-multi-choice,10,95436,0.0-9.0,NA,NA,[0],NA,ae731735-895f-48be-9be2-f41950706c60,2024-08-08 14:29:45 CEST
6355,"{""<b>Dawn:</b> <em> Sophia confirmed that Jack saw the murder.</em><br><br><b>Ken:</b>"":""<em>No, he didn't see the murder.</em>""}",survey-multi-choice,11,101805,0.0-10.0,NA,NA,[0],NA,ae731735-895f-48be-9be2-f41950706c60,2024-08-08 14:29:45 CEST
8931,"{""P0_Q0"":null,""age"":""38"",""gender"":""male"",""language"":""yes"",""amE"":""yes"",""comments"":""no issues""}",survey,12,110876,0.0-11.0,NA,NA,NA,[],ae731735-895f-48be-9be2-f41950706c60,2024-08-08 14:29:45 CEST
11058,"{""Q0"":""Jennifer""}",survey-text,0,11069,0.0-0.0-0.0,TRUE,NA,NA,NA,95d1107a-6fb2-4f0e-aa2d-fb3b811905c9,2024-08-08 14:29:53 CEST
1093,0,html-button-response,1,12162,0.0-0.0-3.0-0.0,NA,<p style='text-align:left'><b> Correct response! You are a human :) </b><br><br></p>,NA,NA,95d1107a-6fb2-4f0e-aa2d-fb3b811905c9,2024-08-08 14:29:53 CEST
17322,0,html-button-response,2,29486,0.0-1.0,NA,"<style>.jsPsych-servey-multi-choice-button {border-radius: 50%;               background-color: white;               border: 0.1px solid #000000;               box-shadow: none;               width: 14px;               height: 14px;               margin-bottom: 5px;               margin-top: 2px;               margin-right: 9px;               color: darked;  }               </style>  <h3>Instructions</h3>  <p style='text-align:left'>In this experiment, you will read nine statements by a speaker, as in the example below, where Candy makes a statement. You will then read three possible responses, here by Lenny.</p>  <p style='text-align:left'> <b>Candy</b>: <i>Jens thinks that it is going to rain tomorrow. </i> <br> <b>Lenny</b>: <br> <button class='jsPsych-servey-multi-choice-button' disabled></button>1.<i> No, it is not going to rain tomorrow. </i> <br> <button class='jsPsych-servey-multi-choice-button' disabled></button>2. <i> Yes, and it is not going to rain tomorrow.</i> <br> <button class='jsPsych-servey-multi-choice-button' disabled></button>3.<i> Yes, but it is not going to rain tomorrow.</i></p>  <p style='text-align:left'>We ask you to choose the response that sounds best to you by selecting the button in front of the response.</p>  <p style='text-align:left'>This experiment will take around 2 minutes, and you will be paid 40 cents.</p>  <p style='text-align:left' font size=""1"">By clicking on the button below, you agree to participate in this experiment, which is conducted by researchers at the University of Stuttgart. You may withdraw from this experiment at any time. The data collected will be anonymous and confidential. If you have any questions, you may contact the requester through Prolific's platform, or directly at st180735@stud.uni-stuttgart.de.</p>",NA,NA,95d1107a-6fb2-4f0e-aa2d-fb3b811905c9,2024-08-08 14:29:53 CEST
6059,"{""<b>Robert:</b><em> Betsy has a cat. </em><br><br><b>Maximilian:</b>"":""<em>Yes, and she loves it so much.</em><br> <br> Please choose the response by Maximilian that sounds best to you.""}",survey-multi-choice,3,35547,0.0-2.0,NA,NA,[0],NA,95d1107a-6fb2-4f0e-aa2d-fb3b811905c9,2024-08-08 14:29:53 CEST
10606,"{""<b>Steven:</b> <em> The police found Jack, who saw the murder.</em><br><br><b>William:</b>"":""<em>Yes, but he didn't see the murder.</em><br><br>Please choose the response by William that sounds best to you.""}",survey-multi-choice,4,46156,0.0-3.0,NA,NA,[0],NA,95d1107a-6fb2-4f0e-aa2d-fb3b811905c9,2024-08-08 14:29:53 CEST
7385,"{""<b>Mary:</b><em> Arthur took a French course.</em><br><br><b>Lily:</b>"":""<em>No, he didn't take a French course.</em><br> <br> Please choose the response by Lily that sounds best to you.""}",survey-multi-choice,5,53544,0.0-4.0,NA,NA,[0],NA,95d1107a-6fb2-4f0e-aa2d-fb3b811905c9,2024-08-08 14:29:53 CEST
9714,"{""<b>Nina:</b> <em> Mia confessed that Greg bought a new car.</em><br><br><b>Clare:</b>"":""<em>No, he didn't buy a new car.</em>""}",survey-multi-choice,6,63260,0.0-5.0,NA,NA,[0],NA,95d1107a-6fb2-4f0e-aa2d-fb3b811905c9,2024-08-08 14:29:53 CEST
9126,"{""<b>Grace:</b> <em> Tony knows that Lucy broke the plate.</em><br><br><b>Dawn:</b>"":""<em>No, she didn't break the plate.</em>""}",survey-multi-choice,7,72389,0.0-6.0,NA,NA,[0],NA,95d1107a-6fb2-4f0e-aa2d-fb3b811905c9,2024-08-08 14:29:53 CEST
16165,"{""<b>Nora:</b> <em> David is right that Ann stole the money.</em><br><br><b>Vincent:</b>"":""<em>No, she didn't steal the money.</em>""}",survey-multi-choice,8,88556,0.0-7.0,NA,NA,[0],NA,95d1107a-6fb2-4f0e-aa2d-fb3b811905c9,2024-08-08 14:29:53 CEST
12962,"{""<b>Charlie:</b> <em> Linda confirmed that Danny ate the last cupcake.</em><br><br><b>Frank:</b>"":""<em>No, he didn't eat the last cupcake.</em><br><br>Please choose the response by Frank that sounds best to you.""}",survey-multi-choice,9,101521,0.0-8.0,NA,NA,[0],NA,95d1107a-6fb2-4f0e-aa2d-fb3b811905c9,2024-08-08 14:29:53 CEST
8988,"{""<b>Bob:</b> <em> Dustin, who lost his key, feels upset.</em><br><br><b>Isabel:</b>"":""<em>No, he didn't lose his key.</em>""}",survey-multi-choice,10,110511,0.0-9.0,NA,NA,[0],NA,95d1107a-6fb2-4f0e-aa2d-fb3b811905c9,2024-08-08 14:29:53 CEST
7705,"{""<b>Chloe:</b> <em> Emma discovered that Raul cheated on his wife.</em><br><br><b>Alice:</b>"":""<em>No, he didn't cheat on his wife.</em>""}",survey-multi-choice,11,118219,0.0-10.0,NA,NA,[0],NA,95d1107a-6fb2-4f0e-aa2d-fb3b811905c9,2024-08-08 14:29:53 CEST
11503,"{""P0_Q0"":null,""age"":""34"",""gender"":""male"",""language"":""yes"",""amE"":""yes"",""comments"":""""}",survey,12,129762,0.0-11.0,NA,NA,NA,[],95d1107a-6fb2-4f0e-aa2d-fb3b811905c9,2024-08-08 14:29:53 CEST
17771,"{""Q0"":""Patricia""}",survey-text,0,17798,0.0-0.0-0.0,TRUE,NA,NA,NA,22fa8d0a-ba14-4d28-9239-010cea7baeaf,2024-08-08 14:30:25 CEST
1311,0,html-button-response,1,19113,0.0-0.0-3.0-0.0,NA,<p style='text-align:left'><b> Correct response! You are a human :) </b><br><br></p>,NA,NA,22fa8d0a-ba14-4d28-9239-010cea7baeaf,2024-08-08 14:30:25 CEST
34498,0,html-button-response,2,53613,0.0-1.0,NA,"<style>.jsPsych-servey-multi-choice-button {border-radius: 50%;               background-color: white;               border: 0.1px solid #000000;               box-shadow: none;               width: 14px;               height: 14px;               margin-bottom: 5px;               margin-top: 2px;               margin-right: 9px;               color: darked;  }               </style>  <h3>Instructions</h3>  <p style='text-align:left'>In this experiment, you will read nine statements by a speaker, as in the example below, where Candy makes a statement. You will then read three possible responses, here by Lenny.</p>  <p style='text-align:left'> <b>Candy</b>: <i>Jens thinks that it is going to rain tomorrow. </i> <br> <b>Lenny</b>: <br> <button class='jsPsych-servey-multi-choice-button' disabled></button>1.<i> No, it is not going to rain tomorrow. </i> <br> <button class='jsPsych-servey-multi-choice-button' disabled></button>2. <i> Yes, and it is not going to rain tomorrow.</i> <br> <button class='jsPsych-servey-multi-choice-button' disabled></button>3.<i> Yes, but it is not going to rain tomorrow.</i></p>  <p style='text-align:left'>We ask you to choose the response that sounds best to you by selecting the button in front of the response.</p>  <p style='text-align:left'>This experiment will take around 2 minutes, and you will be paid 40 cents.</p>  <p style='text-align:left' font size=""1"">By clicking on the button below, you agree to participate in this experiment, which is conducted by researchers at the University of Stuttgart. You may withdraw from this experiment at any time. The data collected will be anonymous and confidential. If you have any questions, you may contact the requester through Prolific's platform, or directly at st180735@stud.uni-stuttgart.de.</p>",NA,NA,22fa8d0a-ba14-4d28-9239-010cea7baeaf,2024-08-08 14:30:25 CEST
21053,"{""<b>Oliver:</b> <em> Emma is right that Raul cheated on his wife.</em><br><br><b>Noah:</b>"":""<em>No, he didn't cheat on his wife.</em>""}",survey-multi-choice,3,74670,0.0-2.0,NA,NA,[0],NA,22fa8d0a-ba14-4d28-9239-010cea7baeaf,2024-08-08 14:30:25 CEST
12735,"{""<b>Leo:</b> <em> Patricia confirmed that Dustin lost his key.</em><br><br><b>Charlotte:</b>"":""<em>No, he didn't lose his key.</em><br><br>Please choose the response by Charlotte that sounds best to you.""}",survey-multi-choice,4,87410,0.0-3.0,NA,NA,[0],NA,22fa8d0a-ba14-4d28-9239-010cea7baeaf,2024-08-08 14:30:25 CEST
15775,"{""<b>Ken:</b> <em> David discovered that Ann stole the money.</em><br><br><b>Steven:</b>"":""<em>No, she didn't steal the money.</em>""}",survey-multi-choice,5,103189,0.0-4.0,NA,NA,[0],NA,22fa8d0a-ba14-4d28-9239-010cea7baeaf,2024-08-08 14:30:25 CEST
33188,"{""<b>Frank:</b> <em> The chef scolded Lucy, who broke the plate.</em><br><br><b>William:</b>"":""<em>Yes, but she didn't break the plate.</em>""}",survey-multi-choice,6,136381,0.0-5.0,NA,NA,[0],NA,22fa8d0a-ba14-4d28-9239-010cea7baeaf,2024-08-08 14:30:25 CEST
8228,"{""<b>Chloe:</b> <em> Linda confessed that Danny ate the last cupcake.</em><br><br><b>Dawn:</b>"":""<em>No, he didn't eat the last cupcake.</em>""}",survey-multi-choice,7,144614,0.0-6.0,NA,NA,[0],NA,22fa8d0a-ba14-4d28-9239-010cea7baeaf,2024-08-08 14:30:25 CEST
13903,"{""<b>Vincent:</b> <em> Mia knows that Greg bought a new car.</em><br><br><b>Isabel:</b>"":""<em>No, he didn't buy a new car.</em>""}",survey-multi-choice,8,158521,0.0-7.0,NA,NA,[0],NA,22fa8d0a-ba14-4d28-9239-010cea7baeaf,2024-08-08 14:30:25 CEST
